onset	duration	trial_type	file	expected_answer	answer	reaction_time
0.0	2.069	ITI	Rien	0	0	0.0
2.069	0.6146031746031746	betty	214_francais	0	0	0.0
2.6836031746031743	2.104396825396826	answer	Rien	-2	2	2.104396825396826
4.788	6.433999999999999	ITI	Rien	0	0	0.0
11.222	0.33918367346938777	betty	214_penser	0	0	0.0
11.561183673469387	2.788816326530613	answer	Rien	-2	2	2.788816326530613
14.35	6.183000000000002	ITI	Rien	0	0	0.0
20.533	0.6468934240362811	anne	182_voyelle	0	0	0.0
21.179893424036283	0.8461065759637165	answer	Rien	-1	1	0.8461065759637165
22.026	7.739000000000001	ITI	Rien	0	0	0.0
29.765	0.7329705215419501	chloe	233_quatre	0	0	0.0
30.49797052154195	1.7500294784580461	answer	Rien	-3	3	1.7500294784580461
32.248	7.146000000000001	ITI	Rien	0	0	0.0
39.394	0.4214739229024944	betty	214_toussez	0	0	0.0
39.81547392290249	3.1145260770975085	answer	Rien	-2	3	3.1145260770975085
42.93	6.253999999999998	ITI	Rien	0	0	0.0
49.184	0.7930385487528344	chloe	233_lundi	0	0	0.0
49.97703854875283	1.5789614512471672	answer	Rien	-3	1	1.5789614512471672
51.556	6.781000000000006	ITI	Rien	0	0	0.0
58.337	0.6907256235827665	anne	182_neutre	0	0	0.0
59.02772562358277	0.8022743764172304	answer	Rien	-1	1	0.8022743764172304
59.83	7.977000000000004	ITI	Rien	0	0	0.0
67.807	0.4803174603174603	anne	182_pouvez	0	0	0.0
68.28731746031747	2.6346825396825295	answer	Rien	-1	1	2.6346825396825295
70.922	6.516000000000005	ITI	Rien	0	0	0.0
77.438	0.5071655328798186	betty	214_neutre	0	0	0.0
77.94516553287983	3.6548344671201676	answer	Rien	-2	1	3.6548344671201676
81.6	4.8300000000000125	ITI	Rien	0	0	0.0
86.43	0.6693197278911565	anne	182_francais	0	0	0.0
87.09931972789116	2.212680272108841	answer	Rien	-1	1	2.212680272108841
89.312	6.350999999999999	ITI	Rien	0	0	0.0
95.663	0.5902040816326529	chloe	233_toussez	0	0	0.0
96.25320408163265	1.7027959183673573	answer	Rien	-3	3	1.7027959183673573
97.956	8.370999999999995	ITI	Rien	0	0	0.0
106.327	0.3878458049886621	betty	214_pouvez	0	0	0.0
106.71484580498866	2.0951541950113466	answer	Rien	-2	2	2.0951541950113466
108.81	6.670000000000002	ITI	Rien	0	0	0.0
115.48	0.4651927437641724	anne	182_hallo	0	0	0.0
115.94519274376418	2.2948072562358135	answer	Rien	-1	1	2.2948072562358135
118.24	6.231999999999999	ITI	Rien	0	0	0.0
124.472	0.42	betty	214_partie	0	0	0.0
124.892	2.2139999999999986	answer	Rien	-2	2	2.2139999999999986
127.106	6.042000000000002	ITI	Rien	0	0	0.0
133.148	0.8311337868480726	chloe	233_francais	0	0	0.0
133.97913378684808	2.8748662131519325	answer	Rien	-3	1	2.8748662131519325
136.854	6.161999999999978	ITI	Rien	0	0	0.0
143.016	0.7627664399092969	anne	182_mardi	0	0	0.0
143.77876643990928	2.0332335600907356	answer	Rien	-1	3	2.0332335600907356
145.812	9.22199999999998	ITI	Rien	0	0	0.0
155.034	0.7115419501133787	chloe	233_voyelle	0	0	0.0
155.74554195011336	2.9884580498866455	answer	Rien	-3	3	2.9884580498866455
158.734	6.486999999999995	ITI	Rien	0	0	0.0
165.221	0.483061224489796	anne	182_partie	0	0	0.0
165.7040612244898	2.881938775510207	answer	Rien	-1	1	2.881938775510207
168.586	6.900999999999982	ITI	Rien	0	0	0.0
175.487	0.4357142857142857	chloe	233_hallo	0	0	0.0
175.92271428571428	2.2232857142857085	answer	Rien	-3	1	2.2232857142857085
178.146	7.051000000000016	ITI	Rien	0	0	0.0
185.197	0.6852380952380952	betty	214_mardi	0	0	0.0
185.8822380952381	1.55576190476188	answer	Rien	-2	3	1.55576190476188
187.438	8.344000000000023	ITI	Rien	0	0	0.0
195.782	0.5778684807256236	chloe	233_partie	0	0	0.0
196.35986848072562	2.6581315192743773	answer	Rien	-3	2	2.6581315192743773
199.018	5.836999999999989	ITI	Rien	0	0	0.0
204.855	0.4849206349206349	betty	214_voyelle	0	0	0.0
205.33992063492062	4.0340793650793785	answer	Rien	-2	3	4.0340793650793785
209.374	5.429000000000002	ITI	Rien	0	0	0.0
214.803	0.7290702947845805	anne	182_jeudi	0	0	0.0
215.53207029478457	0.8719297052154218	answer	Rien	-1	1	0.8719297052154218
216.404	8.665999999999997	ITI	Rien	0	0	0.0
225.07	0.5675963718820861	betty	214_lundi	0	0	0.0
225.63759637188207	3.5644036281179297	answer	Rien	-2	1	3.5644036281179297
229.202	4.701999999999998	ITI	Rien	0	0	0.0
233.904	0.8059410430839002	chloe	233_mardi	0	0	0.0
234.7099410430839	2.97405895691611	answer	Rien	-3	3	2.97405895691611
237.684	5.6910000000000025	ITI	Rien	0	0	0.0
243.375	0.4	chloe	233_pouvez	0	0	0.0
243.775	2.570999999999998	answer	Rien	-3	2	2.570999999999998
246.346	6.260999999999996	ITI	Rien	0	0	0.0
252.607	0.6878231292517006	anne	182_lundi	0	0	0.0
253.2948231292517	2.0731768707482843	answer	Rien	-1	1	2.0731768707482843
255.368	6.310999999999979	ITI	Rien	0	0	0.0
261.679	0.6545351473922902	betty	214_jeudi	0	0	0.0
262.33353514739224	1.5924648526077476	answer	Rien	-2	1	1.5924648526077476
263.926	7.701999999999998	ITI	Rien	0	0	0.0
271.628	0.4672789115646258	betty	214_quatre	0	0	0.0
272.0952789115646	2.0467210884353904	answer	Rien	-2	3	2.0467210884353904
274.142	7.1159999999999854	ITI	Rien	0	0	0.0
281.258	0.4461678004535147	anne	182_penser	0	0	0.0
281.7041678004535	1.9438321995465344	answer	Rien	-1	1	1.9438321995465344
283.648	6.284999999999968	ITI	Rien	0	0	0.0
289.933	0.7373015873015873	chloe	233_jeudi	0	0	0.0
290.6703015873016	2.997698412698412	answer	Rien	-3	3	2.997698412698412
293.668	4.302999999999997	ITI	Rien	0	0	0.0
297.971	0.464625850340136	chloe	233_penser	0	0	0.0
298.43562585034016	2.380374149659815	answer	Rien	-3	1	2.380374149659815
300.816	8.218000000000018	ITI	Rien	0	0	0.0
309.034	0.6176643990929706	anne	182_quatre	0	0	0.0
309.65166439909297	3.050335600907033	answer	Rien	-1	1	3.050335600907033
312.702	5.324000000000012	ITI	Rien	0	0	0.0
318.026	0.317687074829932	betty	214_hallo	0	0	0.0
318.3436870748299	1.5463129251700707	answer	Rien	-2	2	1.5463129251700707
319.89	7.687000000000012	ITI	Rien	0	0	0.0
327.577	0.7879138321995465	chloe	233_neutre	0	0	0.0
328.36491383219953	3.7570861678004803	answer	Rien	-3	3	3.7570861678004803
332.122	5.0049999999999955	ITI	Rien	0	0	0.0
337.127	0.4126303854875283	anne	182_toussez	0	0	0.0
337.53963038548756	2.8603696145124218	answer	Rien	-1	3	2.8603696145124218
340.4	4.209000000000003	ITI	Rien	0	0	0.0
