onset	duration	trial_type	file	expected_answer	answer	reaction_time
0.0	2.069	ITI	Rien	0	0	0.0
2.069	0.6146031746031746	betty	214_francais	0	0	0.0
2.6836031746031743	0.4473968253968254	answer	Rien	-2	2	0.4473968253968254
3.131	8.09	ITI	Rien	0	0	0.0
11.221	0.33918367346938777	betty	214_penser	0	0	0.0
11.560183673469387	1.5488163265306119	answer	Rien	-2	2	1.5488163265306119
13.108999999999998	7.424000000000003	ITI	Rien	0	0	0.0
20.533	0.6468934240362811	anne	182_voyelle	0	0	0.0
21.179893424036283	0.6431065759637176	answer	Rien	-1	1	0.6431065759637176
21.823	7.942	ITI	Rien	0	0	0.0
29.765	0.7329705215419501	chloe	233_quatre	0	0	0.0
30.49797052154195	0.6510294784580493	answer	Rien	-3	3	0.6510294784580493
31.149	8.246000000000002	ITI	Rien	0	0	0.0
39.395	0.4214739229024944	betty	214_toussez	0	0	0.0
39.816473922902496	0.7005260770975	answer	Rien	-2	2	0.7005260770975
40.516999999999996	8.668000000000006	ITI	Rien	0	0	0.0
49.185	0.7930385487528344	chloe	233_lundi	0	0	0.0
49.978038548752835	1.1729614512471656	answer	Rien	-3	2	1.1729614512471656
51.151	7.186	ITI	Rien	0	0	0.0
58.337	0.6907256235827665	anne	182_neutre	0	0	0.0
59.02772562358277	0.7152743764172275	answer	Rien	-1	1	0.7152743764172275
59.742999999999995	8.065000000000012	ITI	Rien	0	0	0.0
67.808	0.4803174603174603	anne	182_pouvez	0	0	0.0
68.28831746031747	1.3566825396825277	answer	Rien	-1	3	1.3566825396825277
69.645	7.793000000000006	ITI	Rien	0	0	0.0
77.438	0.5071655328798186	betty	214_neutre	0	0	0.0
77.94516553287983	0.5798344671201836	answer	Rien	-2	2	0.5798344671201836
78.525	7.905999999999992	ITI	Rien	0	0	0.0
86.431	0.6693197278911565	anne	182_francais	0	0	0.0
87.10031972789115	0.6206802721088422	answer	Rien	-1	1	0.6206802721088422
87.72099999999999	7.942000000000007	ITI	Rien	0	0	0.0
95.663	0.5902040816326529	chloe	233_toussez	0	0	0.0
96.25320408163265	0.22179591836735696	answer	Rien	-3	3	0.22179591836735696
96.47500000000001	9.852999999999994	ITI	Rien	0	0	0.0
106.328	0.3878458049886621	betty	214_pouvez	0	0	0.0
106.71584580498866	0.8591541950113417	answer	Rien	-2	2	0.8591541950113417
107.575	7.905000000000001	ITI	Rien	0	0	0.0
115.48	0.4651927437641724	anne	182_hallo	0	0	0.0
115.94519274376418	1.2458072562358296	answer	Rien	-1	1	1.2458072562358296
117.19100000000002	7.281999999999982	ITI	Rien	0	0	0.0
124.473	0.42	betty	214_partie	0	0	0.0
124.893	1.0659999999999945	answer	Rien	-2	2	1.0659999999999945
125.95899999999999	7.189000000000007	ITI	Rien	0	0	0.0
133.148	0.8311337868480726	chloe	233_francais	0	0	0.0
133.97913378684808	0.6198662131519274	answer	Rien	-3	3	0.6198662131519274
134.59900000000002	8.417999999999978	ITI	Rien	0	0	0.0
143.017	0.7627664399092969	anne	182_mardi	0	0	0.0
143.77976643990928	1.3212335600906955	answer	Rien	-1	3	1.3212335600906955
145.10099999999997	9.934000000000026	ITI	Rien	0	0	0.0
155.035	0.7115419501133787	chloe	233_voyelle	0	0	0.0
155.74654195011337	0.9604580498866135	answer	Rien	-3	1	0.9604580498866135
156.707	8.51400000000001	ITI	Rien	0	0	0.0
165.221	0.483061224489796	anne	182_partie	0	0	0.0
165.7040612244898	1.710938775510192	answer	Rien	-1	3	1.710938775510192
167.415	8.073000000000008	ITI	Rien	0	0	0.0
175.488	0.4357142857142857	chloe	233_hallo	0	0	0.0
175.92371428571428	0.7752857142857229	answer	Rien	-3	3	0.7752857142857229
176.699	8.49799999999999	ITI	Rien	0	0	0.0
185.197	0.6852380952380952	betty	214_mardi	0	0	0.0
185.8822380952381	0.372761904761913	answer	Rien	-2	2	0.372761904761913
186.25500000000002	9.527999999999963	ITI	Rien	0	0	0.0
195.783	0.5778684807256236	chloe	233_partie	0	0	0.0
196.3608684807256	0.6521315192744005	answer	Rien	-3	3	0.6521315192744005
197.013	7.8419999999999845	ITI	Rien	0	0	0.0
204.855	0.4849206349206349	betty	214_voyelle	0	0	0.0
205.33992063492062	0.8130793650793815	answer	Rien	-2	2	0.8130793650793815
206.153	8.65100000000001	ITI	Rien	0	0	0.0
214.804	0.7290702947845805	anne	182_jeudi	0	0	0.0
215.53307029478458	0.42992970521541174	answer	Rien	-1	1	0.42992970521541174
215.963	9.108000000000004	ITI	Rien	0	0	0.0
225.071	0.5675963718820861	betty	214_lundi	0	0	0.0
225.63859637188207	0.5104036281179096	answer	Rien	-2	2	0.5104036281179096
226.14899999999997	7.755000000000024	ITI	Rien	0	0	0.0
233.904	0.8059410430839002	chloe	233_mardi	0	0	0.0
234.7099410430839	0.4330589569161045	answer	Rien	-3	3	0.4330589569161045
235.143	8.233000000000004	ITI	Rien	0	0	0.0
243.376	0.4	chloe	233_pouvez	0	0	0.0
243.776	1.7690000000000037	answer	Rien	-3	3	1.7690000000000037
245.54500000000002	7.061999999999983	ITI	Rien	0	0	0.0
252.607	0.6878231292517006	anne	182_lundi	0	0	0.0
253.2948231292517	0.5101768707483075	answer	Rien	-1	1	0.5101768707483075
253.805	7.875	ITI	Rien	0	0	0.0
261.68	0.6545351473922902	betty	214_jeudi	0	0	0.0
262.3345351473923	0.5324648526076943	answer	Rien	-2	2	0.5324648526076943
262.86699999999996	8.761000000000024	ITI	Rien	0	0	0.0
271.628	0.4672789115646258	betty	214_quatre	0	0	0.0
272.0952789115646	1.2417210884353904	answer	Rien	-2	1	1.2417210884353904
273.337	7.9220000000000255	ITI	Rien	0	0	0.0
281.259	0.4461678004535147	anne	182_penser	0	0	0.0
281.7051678004535	0.9378321995464608	answer	Rien	-1	1	0.9378321995464608
282.643	7.2900000000000205	ITI	Rien	0	0	0.0
289.933	0.7373015873015873	chloe	233_jeudi	0	0	0.0
290.6703015873016	0.5126984126984049	answer	Rien	-3	3	0.5126984126984049
291.183	6.788999999999987	ITI	Rien	0	0	0.0
297.972	0.464625850340136	chloe	233_penser	0	0	0.0
298.43662585034014	1.3823741496598805	answer	Rien	-3	1	1.3823741496598805
299.819	9.214999999999975	ITI	Rien	0	0	0.0
309.034	0.6176643990929706	anne	182_quatre	0	0	0.0
309.65166439909297	0.7573356009070377	answer	Rien	-1	1	0.7573356009070377
310.409	7.617999999999995	ITI	Rien	0	0	0.0
318.027	0.317687074829932	betty	214_hallo	0	0	0.0
318.3446870748299	0.8463129251700925	answer	Rien	-2	2	0.8463129251700925
319.191	8.386000000000024	ITI	Rien	0	0	0.0
327.577	0.7879138321995465	chloe	233_neutre	0	0	0.0
328.36491383219953	1.0420861678004631	answer	Rien	-3	2	1.0420861678004631
329.407	7.721000000000004	ITI	Rien	0	0	0.0
337.128	0.4126303854875283	anne	182_toussez	0	0	0.0
337.54063038548753	1.384369614512504	answer	Rien	-1	1	1.384369614512504
338.925	5.683999999999969	ITI	Rien	0	0	0.0
