onset	duration	trial_type	file	expected_answer	answer	reaction_time
0.0	2.069	ITI	Rien	0	0	0.0
2.069	0.6146031746031746	betty	214_francais	0	0	0.0
2.6836031746031743	0.6653968253968259	answer	Rien	-2	2	0.6653968253968259
3.349	7.872	ITI	Rien	0	0	0.0
11.221	0.33918367346938777	betty	214_penser	0	0	0.0
11.560183673469387	0.8568163265306126	answer	Rien	-2	2	0.8568163265306126
12.417	8.116000000000001	ITI	Rien	0	0	0.0
20.533	0.6468934240362811	anne	182_voyelle	0	0	0.0
21.179893424036283	0.2911065759637168	answer	Rien	-1	1	0.2911065759637168
21.471	8.293	ITI	Rien	0	0	0.0
29.764	0.7329705215419501	chloe	233_quatre	0	0	0.0
30.49697052154195	0.35602947845805133	answer	Rien	-3	3	0.35602947845805133
30.853	8.542000000000002	ITI	Rien	0	0	0.0
39.395	0.4214739229024944	betty	214_toussez	0	0	0.0
39.816473922902496	0.6825260770975063	answer	Rien	-2	2	0.6825260770975063
40.499	8.683999999999997	ITI	Rien	0	0	0.0
49.183	0.7930385487528344	chloe	233_lundi	0	0	0.0
49.97603854875283	0.37096145124716884	answer	Rien	-3	2	0.37096145124716884
50.347	7.988999999999997	ITI	Rien	0	0	0.0
58.336	0.6907256235827665	anne	182_neutre	0	0	0.0
59.02672562358276	0.23227437641723725	answer	Rien	-1	1	0.23227437641723725
59.259	8.546999999999997	ITI	Rien	0	0	0.0
67.806	0.4803174603174603	anne	182_pouvez	0	0	0.0
68.28631746031746	1.0846825396825324	answer	Rien	-1	3	1.0846825396825324
69.371	8.066000000000003	ITI	Rien	0	0	0.0
77.437	0.5071655328798186	betty	214_neutre	0	0	0.0
77.94416553287982	1.420834467120173	answer	Rien	-2	2	1.420834467120173
79.365	7.065000000000012	ITI	Rien	0	0	0.0
86.43	0.6693197278911565	anne	182_francais	0	0	0.0
87.09931972789116	0.5156802721088383	answer	Rien	-1	1	0.5156802721088383
87.615	8.047000000000011	ITI	Rien	0	0	0.0
95.662	0.5902040816326529	chloe	233_toussez	0	0	0.0
96.25220408163266	0.3807959183673404	answer	Rien	-3	3	0.3807959183673404
96.633	9.694000000000003	ITI	Rien	0	0	0.0
106.327	0.3878458049886621	betty	214_pouvez	0	0	0.0
106.71484580498866	0.7801541950113489	answer	Rien	-2	2	0.7801541950113489
107.495	7.983999999999995	ITI	Rien	0	0	0.0
115.479	0.4651927437641724	anne	182_hallo	0	0	0.0
115.94419274376418	0.4968072562358259	answer	Rien	-1	1	0.4968072562358259
116.441	8.031999999999996	ITI	Rien	0	0	0.0
124.473	0.42	betty	214_partie	0	0	0.0
124.893	0.8439999999999941	answer	Rien	-2	2	0.8439999999999941
125.737	7.409999999999997	ITI	Rien	0	0	0.0
133.147	0.8311337868480726	chloe	233_francais	0	0	0.0
133.97813378684808	0.34086621315191223	answer	Rien	-3	3	0.34086621315191223
134.319	8.697000000000003	ITI	Rien	0	0	0.0
143.016	0.7627664399092969	anne	182_mardi	0	0	0.0
143.77876643990928	0.42823356009071745	answer	Rien	-1	1	0.42823356009071745
144.207	10.825999999999993	ITI	Rien	0	0	0.0
155.033	0.7115419501133787	chloe	233_voyelle	0	0	0.0
155.74454195011336	1.0764580498866394	answer	Rien	-3	3	1.0764580498866394
156.821	8.399000000000001	ITI	Rien	0	0	0.0
165.22	0.483061224489796	anne	182_partie	0	0	0.0
165.7030612244898	0.3479387755101868	answer	Rien	-1	1	0.3479387755101868
166.051	9.436000000000007	ITI	Rien	0	0	0.0
175.487	0.4357142857142857	chloe	233_hallo	0	0	0.0
175.92271428571428	0.5502857142857351	answer	Rien	-3	3	0.5502857142857351
176.473	8.722999999999985	ITI	Rien	0	0	0.0
185.196	0.6852380952380952	betty	214_mardi	0	0	0.0
185.8812380952381	0.7837619047618887	answer	Rien	-2	2	0.7837619047618887
186.665	9.117000000000019	ITI	Rien	0	0	0.0
195.782	0.5778684807256236	chloe	233_partie	0	0	0.0
196.35986848072562	0.3831315192743716	answer	Rien	-3	3	0.3831315192743716
196.743	8.111000000000018	ITI	Rien	0	0	0.0
204.854	0.4849206349206349	betty	214_voyelle	0	0	0.0
205.33892063492064	0.5200793650793685	answer	Rien	-2	2	0.5200793650793685
205.859	8.943999999999988	ITI	Rien	0	0	0.0
214.803	0.7290702947845805	anne	182_jeudi	0	0	0.0
215.53207029478457	0.21492970521543953	answer	Rien	-1	1	0.21492970521543953
215.747	9.321999999999974	ITI	Rien	0	0	0.0
225.069	0.5675963718820861	betty	214_lundi	0	0	0.0
225.63659637188206	2.3064036281179483	answer	Rien	-2	3	2.3064036281179483
227.943	5.960999999999984	ITI	Rien	0	0	0.0
233.904	0.8059410430839002	chloe	233_mardi	0	0	0.0
234.7099410430839	2.0110589569161164	answer	Rien	-3	3	2.0110589569161164
236.721	6.652999999999992	ITI	Rien	0	0	0.0
243.374	0.4	chloe	233_pouvez	0	0	0.0
243.774	1.9269999999999925	answer	Rien	-3	3	1.9269999999999925
245.701	6.905000000000001	ITI	Rien	0	0	0.0
252.606	0.6878231292517006	anne	182_lundi	0	0	0.0
253.2938231292517	0.22317687074828996	answer	Rien	-1	1	0.22317687074828996
253.517	8.163000000000011	ITI	Rien	0	0	0.0
261.68	0.6545351473922902	betty	214_jeudi	0	0	0.0
262.3345351473923	1.4504648526077517	answer	Rien	-2	2	1.4504648526077517
263.785	7.8419999999999845	ITI	Rien	0	0	0.0
271.627	0.4672789115646258	betty	214_quatre	0	0	0.0
272.09427891156463	0.8747210884353649	answer	Rien	-2	2	0.8747210884353649
272.969	8.288999999999987	ITI	Rien	0	0	0.0
281.258	0.4461678004535147	anne	182_penser	0	0	0.0
281.7041678004535	0.5248321995464948	answer	Rien	-1	1	0.5248321995464948
282.229	7.703000000000031	ITI	Rien	0	0	0.0
289.932	0.7373015873015873	chloe	233_jeudi	0	0	0.0
290.6693015873016	3.7476984126983552	answer	Rien	-3	3	3.7476984126983552
294.417	3.5540000000000305	ITI	Rien	0	0	0.0
297.971	0.464625850340136	chloe	233_penser	0	0	0.0
298.43562585034016	4.091374149659828	answer	Rien	-3	1	4.091374149659828
302.527	6.506000000000029	ITI	Rien	0	0	0.0
309.033	0.6176643990929706	anne	182_quatre	0	0	0.0
309.650664399093	0.27633560090703213	answer	Rien	-1	1	0.27633560090703213
309.927	8.09899999999999	ITI	Rien	0	0	0.0
318.026	0.317687074829932	betty	214_hallo	0	0	0.0
318.3436870748299	1.8753129251700784	answer	Rien	-2	2	1.8753129251700784
320.219	7.357000000000028	ITI	Rien	0	0	0.0
327.576	0.7879138321995465	chloe	233_neutre	0	0	0.0
328.36391383219956	0.5590861678004444	answer	Rien	-3	3	0.5590861678004444
328.923	8.204000000000008	ITI	Rien	0	0	0.0
337.127	0.4126303854875283	anne	182_toussez	0	0	0.0
337.53963038548756	3.5653696145124627	answer	Rien	-1	1	3.5653696145124627
341.105	3.502999999999986	ITI	Rien	0	0	0.0
