onset	duration	trial_type	file	expected_answer	answer	reaction_time
0.0	2.069	ITI	Rien	0	0	0.0
2.069	0.6146031746031746	betty	214_francais	0	0	0.0
2.6836031746031743	1.5843968253968255	answer	Rien	-2	2	1.5843968253968255
4.268	6.954	ITI	Rien	0	0	0.0
11.222	0.33918367346938777	betty	214_penser	0	0	0.0
11.561183673469387	1.2388163265306118	answer	Rien	-2	2	1.2388163265306118
12.799999999999999	7.733000000000002	ITI	Rien	0	0	0.0
20.533	0.6468934240362811	anne	182_voyelle	0	0	0.0
21.179893424036283	0.9301065759637164	answer	Rien	-1	1	0.9301065759637164
22.11	7.655000000000001	ITI	Rien	0	0	0.0
29.765	0.7329705215419501	chloe	233_quatre	0	0	0.0
30.49797052154195	0.5340294784580493	answer	Rien	-3	3	0.5340294784580493
31.032	8.363000000000003	ITI	Rien	0	0	0.0
39.395	0.4214739229024944	betty	214_toussez	0	0	0.0
39.816473922902496	0.7915260770975023	answer	Rien	-2	2	0.7915260770975023
40.608	8.576	ITI	Rien	0	0	0.0
49.184	0.7930385487528344	chloe	233_lundi	0	0	0.0
49.97703854875283	0.0	answer	Rien	-3	0	0.0
49.97703854875283	8.359961451247173	ITI	Rien	0	0	0.0
58.337	0.6907256235827665	anne	182_neutre	0	0	0.0
59.02772562358277	1.9042743764172276	answer	Rien	-1	1	1.9042743764172276
60.931999999999995	6.875000000000007	ITI	Rien	0	0	0.0
67.807	0.4803174603174603	anne	182_pouvez	0	0	0.0
68.28731746031747	0.0	answer	Rien	-1	0	0.0
68.28731746031747	9.150682539682535	ITI	Rien	0	0	0.0
77.438	0.5071655328798186	betty	214_neutre	0	0	0.0
77.94516553287983	0.7508344671201835	answer	Rien	-2	2	0.7508344671201835
78.69600000000001	7.733999999999995	ITI	Rien	0	0	0.0
86.43	0.6693197278911565	anne	182_francais	0	0	0.0
87.09931972789116	0.6946802721088423	answer	Rien	-1	1	0.6946802721088423
87.794	7.869	ITI	Rien	0	0	0.0
95.663	0.5902040816326529	chloe	233_toussez	0	0	0.0
96.25320408163265	0.6807959183673475	answer	Rien	-3	3	0.6807959183673475
96.934	9.393	ITI	Rien	0	0	0.0
106.327	0.3878458049886621	betty	214_pouvez	0	0	0.0
106.71484580498866	0.6211541950113417	answer	Rien	-2	2	0.6211541950113417
107.336	8.144000000000005	ITI	Rien	0	0	0.0
115.48	0.4651927437641724	anne	182_hallo	0	0	0.0
115.94519274376418	1.8968072562358298	answer	Rien	-1	1	1.8968072562358298
117.84200000000001	6.630999999999986	ITI	Rien	0	0	0.0
124.473	0.42	betty	214_partie	0	0	0.0
124.893	0.6330000000000038	answer	Rien	-2	2	0.6330000000000038
125.52600000000001	7.621999999999986	ITI	Rien	0	0	0.0
133.148	0.8311337868480726	chloe	233_francais	0	0	0.0
133.97913378684808	0.0	answer	Rien	-3	0	0.0
133.97913378684808	9.03686621315191	ITI	Rien	0	0	0.0
143.016	0.7627664399092969	anne	182_mardi	0	0	0.0
143.77876643990928	0.0	answer	Rien	-1	0	0.0
143.77876643990928	11.255233560090716	ITI	Rien	0	0	0.0
155.034	0.7115419501133787	chloe	233_voyelle	0	0	0.0
155.74554195011336	1.8764580498866419	answer	Rien	-3	3	1.8764580498866419
157.622	7.5989999999999895	ITI	Rien	0	0	0.0
165.221	0.483061224489796	anne	182_partie	0	0	0.0
165.7040612244898	1.7819387755101967	answer	Rien	-1	2	1.7819387755101967
167.486	8.00200000000001	ITI	Rien	0	0	0.0
175.488	0.4357142857142857	chloe	233_hallo	0	0	0.0
175.92371428571428	2.6042857142857185	answer	Rien	-3	1	2.6042857142857185
178.528	6.670000000000016	ITI	Rien	0	0	0.0
185.198	0.6852380952380952	betty	214_mardi	0	0	0.0
185.8832380952381	0.34876190476188457	answer	Rien	-2	2	0.34876190476188457
186.232	9.550000000000011	ITI	Rien	0	0	0.0
195.782	0.5778684807256236	chloe	233_partie	0	0	0.0
196.35986848072562	2.114131519274377	answer	Rien	-3	3	2.114131519274377
198.474	6.381	ITI	Rien	0	0	0.0
204.855	0.4849206349206349	betty	214_voyelle	0	0	0.0
205.33992063492062	0.46607936507938147	answer	Rien	-2	2	0.46607936507938147
205.806	8.996999999999986	ITI	Rien	0	0	0.0
214.803	0.7290702947845805	anne	182_jeudi	0	0	0.0
215.53207029478457	0.40192970521541654	answer	Rien	-1	1	0.40192970521541654
215.934	9.135999999999996	ITI	Rien	0	0	0.0
225.07	0.5675963718820861	betty	214_lundi	0	0	0.0
225.63759637188207	1.0444036281179143	answer	Rien	-2	2	1.0444036281179143
226.682	7.223000000000013	ITI	Rien	0	0	0.0
233.905	0.8059410430839002	chloe	233_mardi	0	0	0.0
234.7109410430839	0.0	answer	Rien	-3	0	0.0
234.7109410430839	8.664058956916108	ITI	Rien	0	0	0.0
243.375	0.4	chloe	233_pouvez	0	0	0.0
243.775	0.0	answer	Rien	-3	0	0.0
243.775	8.831999999999994	ITI	Rien	0	0	0.0
252.607	0.6878231292517006	anne	182_lundi	0	0	0.0
253.2948231292517	0.47917687074831233	answer	Rien	-1	1	0.47917687074831233
253.77400000000003	7.9059999999999775	ITI	Rien	0	0	0.0
261.68	0.6545351473922902	betty	214_jeudi	0	0	0.0
262.3345351473923	0.4754648526077179	answer	Rien	-2	2	0.4754648526077179
262.81	8.817999999999984	ITI	Rien	0	0	0.0
271.628	0.4672789115646258	betty	214_quatre	0	0	0.0
272.0952789115646	1.2007210884353905	answer	Rien	-2	2	1.2007210884353905
273.296	7.961999999999989	ITI	Rien	0	0	0.0
281.258	0.4461678004535147	anne	182_penser	0	0	0.0
281.7041678004535	0.6618321995465176	answer	Rien	-1	1	0.6618321995465176
282.366	7.567000000000007	ITI	Rien	0	0	0.0
289.933	0.7373015873015873	chloe	233_jeudi	0	0	0.0
290.6703015873016	0.8976984126984049	answer	Rien	-3	3	0.8976984126984049
291.568	6.40300000000002	ITI	Rien	0	0	0.0
297.971	0.464625850340136	chloe	233_penser	0	0	0.0
298.43562585034016	0.0	answer	Rien	-3	0	0.0
298.43562585034016	10.598374149659833	ITI	Rien	0	0	0.0
309.034	0.6176643990929706	anne	182_quatre	0	0	0.0
309.65166439909297	0.0	answer	Rien	-1	0	0.0
309.65166439909297	8.375335600907022	ITI	Rien	0	0	0.0
318.027	0.317687074829932	betty	214_hallo	0	0	0.0
318.3446870748299	0.0	answer	Rien	-2	0	0.0
318.3446870748299	9.232312925170106	ITI	Rien	0	0	0.0
327.577	0.7879138321995465	chloe	233_neutre	0	0	0.0
328.36491383219953	0.0	answer	Rien	-3	0	0.0
328.36491383219953	8.762086167800476	ITI	Rien	0	0	0.0
337.127	0.4126303854875283	anne	182_toussez	0	0	0.0
337.53963038548756	0.0	answer	Rien	-1	0	0.0
337.53963038548756	7.069369614512425	ITI	Rien	0	0	0.0
