onset	duration	trial_type	file	expected_answer	answer	reaction_time
0.0	2.069	ITI	Rien	0	0	0.0
2.069	0.6146031746031746	betty	214_francais	0	0	0.0
2.6836031746031743	0.8343968253968255	answer	Rien	-2	2	0.8343968253968255
3.518	7.703000000000001	ITI	Rien	0	0	0.0
11.221	0.33918367346938777	betty	214_penser	0	0	0.0
11.560183673469387	1.227816326530612	answer	Rien	-2	3	1.227816326530612
12.787999999999998	7.745000000000003	ITI	Rien	0	0	0.0
20.533	0.6468934240362811	anne	182_voyelle	0	0	0.0
21.179893424036283	0.6961065759637176	answer	Rien	-1	1	0.6961065759637176
21.876	7.888999999999999	ITI	Rien	0	0	0.0
29.765	0.7329705215419501	chloe	233_quatre	0	0	0.0
30.49797052154195	0.8180294784580493	answer	Rien	-3	3	0.8180294784580493
31.316000000000003	8.079	ITI	Rien	0	0	0.0
39.395	0.4214739229024944	betty	214_toussez	0	0	0.0
39.816473922902496	1.4395260770975	answer	Rien	-2	2	1.4395260770975
41.25599999999999	7.928000000000004	ITI	Rien	0	0	0.0
49.184	0.7930385487528344	chloe	233_lundi	0	0	0.0
49.97703854875283	0.6669614512471703	answer	Rien	-3	3	0.6669614512471703
50.644	7.693000000000005	ITI	Rien	0	0	0.0
58.337	0.6907256235827665	anne	182_neutre	0	0	0.0
59.02772562358277	0.5082743764172275	answer	Rien	-1	1	0.5082743764172275
59.535999999999994	8.272000000000013	ITI	Rien	0	0	0.0
67.808	0.4803174603174603	anne	182_pouvez	0	0	0.0
68.28831746031747	1.6656825396825277	answer	Rien	-1	1	1.6656825396825277
69.954	7.483000000000004	ITI	Rien	0	0	0.0
77.437	0.5071655328798186	betty	214_neutre	0	0	0.0
77.94416553287982	0.6218344671201835	answer	Rien	-2	2	0.6218344671201835
78.566	7.864999999999995	ITI	Rien	0	0	0.0
86.431	0.6693197278911565	anne	182_francais	0	0	0.0
87.10031972789115	0.5236802721088517	answer	Rien	-1	1	0.5236802721088517
87.624	8.039000000000001	ITI	Rien	0	0	0.0
95.663	0.5902040816326529	chloe	233_toussez	0	0	0.0
96.25320408163265	0.26079591836735694	answer	Rien	-3	3	0.26079591836735694
96.514	9.814000000000007	ITI	Rien	0	0	0.0
106.328	0.3878458049886621	betty	214_pouvez	0	0	0.0
106.71584580498866	1.6961541950113417	answer	Rien	-2	2	1.6961541950113417
108.412	7.066999999999993	ITI	Rien	0	0	0.0
115.479	0.4651927437641724	anne	182_hallo	0	0	0.0
115.94419274376418	0.7478072562358298	answer	Rien	-1	1	0.7478072562358298
116.69200000000001	7.780999999999992	ITI	Rien	0	0	0.0
124.473	0.42	betty	214_partie	0	0	0.0
124.893	0.8109999999999944	answer	Rien	-2	2	0.8109999999999944
125.704	7.444000000000003	ITI	Rien	0	0	0.0
133.148	0.8311337868480726	chloe	233_francais	0	0	0.0
133.97913378684808	0.3428662131519274	answer	Rien	-3	3	0.3428662131519274
134.322	8.694999999999993	ITI	Rien	0	0	0.0
143.017	0.7627664399092969	anne	182_mardi	0	0	0.0
143.77976643990928	0.8522335600906953	answer	Rien	-1	2	0.8522335600906953
144.63199999999998	10.40300000000002	ITI	Rien	0	0	0.0
155.035	0.7115419501133787	chloe	233_voyelle	0	0	0.0
155.74654195011337	0.0	answer	Rien	-3	0	0.0
155.74654195011337	9.474458049886636	ITI	Rien	0	0	0.0
165.221	0.483061224489796	anne	182_partie	0	0	0.0
165.7040612244898	0.8419387755101919	answer	Rien	-1	3	0.8419387755101919
166.546	8.942000000000007	ITI	Rien	0	0	0.0
175.488	0.4357142857142857	chloe	233_hallo	0	0	0.0
175.92371428571428	0.8162857142857229	answer	Rien	-3	1	0.8162857142857229
176.74	8.456999999999994	ITI	Rien	0	0	0.0
185.197	0.6852380952380952	betty	214_mardi	0	0	0.0
185.8822380952381	0.6077619047619129	answer	Rien	-2	2	0.6077619047619129
186.49	9.292000000000002	ITI	Rien	0	0	0.0
195.782	0.5778684807256236	chloe	233_partie	0	0	0.0
196.35986848072562	0.2281315192743769	answer	Rien	-3	3	0.2281315192743769
196.588	8.266999999999996	ITI	Rien	0	0	0.0
204.855	0.4849206349206349	betty	214_voyelle	0	0	0.0
205.33992063492062	0.7840793650793814	answer	Rien	-2	1	0.7840793650793814
206.124	8.679000000000002	ITI	Rien	0	0	0.0
214.803	0.7290702947845805	anne	182_jeudi	0	0	0.0
215.53207029478457	0.5479297052154117	answer	Rien	-1	2	0.5479297052154117
216.07999999999998	8.991000000000014	ITI	Rien	0	0	0.0
225.071	0.5675963718820861	betty	214_lundi	0	0	0.0
225.63859637188207	0.7274036281179096	answer	Rien	-2	1	0.7274036281179096
226.36599999999999	7.538000000000011	ITI	Rien	0	0	0.0
233.904	0.8059410430839002	chloe	233_mardi	0	0	0.0
234.7099410430839	0.5180589569161045	answer	Rien	-3	2	0.5180589569161045
235.22799999999998	8.14700000000002	ITI	Rien	0	0	0.0
243.375	0.4	chloe	233_pouvez	0	0	0.0
243.775	1.3370000000000086	answer	Rien	-3	1	1.3370000000000086
245.11200000000002	7.494999999999976	ITI	Rien	0	0	0.0
252.607	0.6878231292517006	anne	182_lundi	0	0	0.0
253.2948231292517	0.2531768707483075	answer	Rien	-1	1	0.2531768707483075
253.54800000000003	8.131999999999977	ITI	Rien	0	0	0.0
261.68	0.6545351473922902	betty	214_jeudi	0	0	0.0
262.3345351473923	0.613464852607718	answer	Rien	-2	2	0.613464852607718
262.948	8.680000000000007	ITI	Rien	0	0	0.0
271.628	0.4672789115646258	betty	214_quatre	0	0	0.0
272.0952789115646	1.8587210884353904	answer	Rien	-2	3	1.8587210884353904
273.954	7.303999999999974	ITI	Rien	0	0	0.0
281.258	0.4461678004535147	anne	182_penser	0	0	0.0
281.7041678004535	0.497832199546494	answer	Rien	-1	1	0.497832199546494
282.202	7.7309999999999945	ITI	Rien	0	0	0.0
289.933	0.7373015873015873	chloe	233_jeudi	0	0	0.0
290.6703015873016	0.617698412698405	answer	Rien	-3	3	0.617698412698405
291.288	6.683999999999969	ITI	Rien	0	0	0.0
297.972	0.464625850340136	chloe	233_penser	0	0	0.0
298.43662585034014	0.7113741496598804	answer	Rien	-3	1	0.7113741496598804
299.148	9.884999999999991	ITI	Rien	0	0	0.0
309.033	0.6176643990929706	anne	182_quatre	0	0	0.0
309.650664399093	0.5533356009070141	answer	Rien	-1	3	0.5533356009070141
310.204	7.822999999999979	ITI	Rien	0	0	0.0
318.027	0.317687074829932	betty	214_hallo	0	0	0.0
318.3446870748299	1.1453129251700924	answer	Rien	-2	3	1.1453129251700924
319.49	8.086999999999989	ITI	Rien	0	0	0.0
327.577	0.7879138321995465	chloe	233_neutre	0	0	0.0
328.36491383219953	0.9350861678004535	answer	Rien	-3	1	0.9350861678004535
329.3	7.8279999999999745	ITI	Rien	0	0	0.0
337.128	0.4126303854875283	anne	182_toussez	0	0	0.0
337.54063038548753	1.641369614512504	answer	Rien	-1	1	1.641369614512504
339.182	5.425999999999988	ITI	Rien	0	0	0.0
