onset	duration	trial_type	file	expected_answer	answer	reaction_time
0.0	2.07	ITI	Rien	0	0	0.0
2.07	0.6146031746031746	betty	214_francais	0	0	0.0
2.6846031746031747	1.2103968253968254	answer	Rien	-2	2	1.2103968253968254
3.895	7.3260000000000005	ITI	Rien	0	0	0.0
11.221	0.33918367346938777	betty	214_penser	0	0	0.0
11.560183673469387	0.7248163265306129	answer	Rien	-2	2	0.7248163265306129
12.285	8.248000000000001	ITI	Rien	0	0	0.0
20.533	0.6468934240362811	anne	182_voyelle	0	0	0.0
21.179893424036283	0.5111065759637157	answer	Rien	-1	1	0.5111065759637157
21.691	8.074000000000002	ITI	Rien	0	0	0.0
29.765	0.7329705215419501	chloe	233_quatre	0	0	0.0
30.49797052154195	0.3810294784580499	answer	Rien	-3	3	0.3810294784580499
30.879	8.516000000000002	ITI	Rien	0	0	0.0
39.395	0.4214739229024944	betty	214_toussez	0	0	0.0
39.816473922902496	0.5265260770975075	answer	Rien	-2	2	0.5265260770975075
40.343	8.840999999999994	ITI	Rien	0	0	0.0
49.184	0.7930385487528344	chloe	233_lundi	0	0	0.0
49.97703854875283	1.9439614512471692	answer	Rien	-3	3	1.9439614512471692
51.921	6.416000000000004	ITI	Rien	0	0	0.0
58.337	0.6907256235827665	anne	182_neutre	0	0	0.0
59.02772562358277	1.1032743764172324	answer	Rien	-1	1	1.1032743764172324
60.131	7.676000000000002	ITI	Rien	0	0	0.0
67.807	0.4803174603174603	anne	182_pouvez	0	0	0.0
68.28731746031747	0.6156825396825383	answer	Rien	-1	3	0.6156825396825383
68.903	8.533999999999992	ITI	Rien	0	0	0.0
77.437	0.5071655328798186	betty	214_neutre	0	0	0.0
77.94416553287982	0.7688344671201719	answer	Rien	-2	2	0.7688344671201719
78.713	7.717000000000013	ITI	Rien	0	0	0.0
86.43	0.6693197278911565	anne	182_francais	0	0	0.0
87.09931972789116	0.9296802721088397	answer	Rien	-1	1	0.9296802721088397
88.029	7.634	ITI	Rien	0	0	0.0
95.663	0.5902040816326529	chloe	233_toussez	0	0	0.0
96.25320408163265	0.5157959183673597	answer	Rien	-3	2	0.5157959183673597
96.769	9.558999999999997	ITI	Rien	0	0	0.0
106.328	0.3878458049886621	betty	214_pouvez	0	0	0.0
106.71584580498866	0.5351541950113443	answer	Rien	-2	2	0.5351541950113443
107.251	8.229	ITI	Rien	0	0	0.0
115.48	0.4651927437641724	anne	182_hallo	0	0	0.0
115.94519274376418	0.7998072562358232	answer	Rien	-1	3	0.7998072562358232
116.745	7.727999999999994	ITI	Rien	0	0	0.0
124.473	0.42	betty	214_partie	0	0	0.0
124.893	0.8659999999999997	answer	Rien	-2	2	0.8659999999999997
125.759	7.388999999999996	ITI	Rien	0	0	0.0
133.148	0.8311337868480726	chloe	233_francais	0	0	0.0
133.97913378684808	0.5718662131519068	answer	Rien	-3	3	0.5718662131519068
134.551	8.466000000000008	ITI	Rien	0	0	0.0
143.017	0.7627664399092969	anne	182_mardi	0	0	0.0
143.77976643990928	0.6612335600907215	answer	Rien	-1	3	0.6612335600907215
144.441	10.59299999999999	ITI	Rien	0	0	0.0
155.034	0.7115419501133787	chloe	233_voyelle	0	0	0.0
155.74554195011336	0.8174580498866248	answer	Rien	-3	3	0.8174580498866248
156.563	8.658000000000015	ITI	Rien	0	0	0.0
165.221	0.483061224489796	anne	182_partie	0	0	0.0
165.7040612244898	1.678938775510204	answer	Rien	-1	1	1.678938775510204
167.383	8.103999999999985	ITI	Rien	0	0	0.0
175.487	0.4357142857142857	chloe	233_hallo	0	0	0.0
175.92271428571428	0.6702857142857113	answer	Rien	-3	3	0.6702857142857113
176.593	8.604000000000013	ITI	Rien	0	0	0.0
185.197	0.6852380952380952	betty	214_mardi	0	0	0.0
185.8822380952381	0.4187619047618796	answer	Rien	-2	2	0.4187619047618796
186.301	9.482	ITI	Rien	0	0	0.0
195.783	0.5778684807256236	chloe	233_partie	0	0	0.0
196.3608684807256	0.5361315192743916	answer	Rien	-3	3	0.5361315192743916
196.897	7.957999999999998	ITI	Rien	0	0	0.0
204.855	0.4849206349206349	betty	214_voyelle	0	0	0.0
205.33992063492062	0.6670793650793883	answer	Rien	-2	2	0.6670793650793883
206.007	8.796999999999997	ITI	Rien	0	0	0.0
214.804	0.7290702947845805	anne	182_jeudi	0	0	0.0
215.53307029478458	1.1619297052154138	answer	Rien	-1	1	1.1619297052154138
216.695	8.375	ITI	Rien	0	0	0.0
225.07	0.5675963718820861	betty	214_lundi	0	0	0.0
225.63759637188207	2.2274036281179406	answer	Rien	-2	2	2.2274036281179406
227.865	6.038999999999987	ITI	Rien	0	0	0.0
233.904	0.8059410430839002	chloe	233_mardi	0	0	0.0
234.7099410430839	1.1530589569161123	answer	Rien	-3	3	1.1530589569161123
235.863	7.510999999999996	ITI	Rien	0	0	0.0
243.374	0.4	chloe	233_pouvez	0	0	0.0
243.774	1.8930000000000007	answer	Rien	-3	2	1.8930000000000007
245.667	6.939999999999998	ITI	Rien	0	0	0.0
252.607	0.6878231292517006	anne	182_lundi	0	0	0.0
253.2948231292517	0.5541768707482788	answer	Rien	-1	1	0.5541768707482788
253.849	7.829999999999984	ITI	Rien	0	0	0.0
261.679	0.6545351473922902	betty	214_jeudi	0	0	0.0
262.33353514739224	1.0154648526077494	answer	Rien	-2	2	1.0154648526077494
263.349	8.278999999999996	ITI	Rien	0	0	0.0
271.628	0.4672789115646258	betty	214_quatre	0	0	0.0
272.0952789115646	1.5597210884353672	answer	Rien	-2	2	1.5597210884353672
273.655	7.603000000000009	ITI	Rien	0	0	0.0
281.258	0.4461678004535147	anne	182_penser	0	0	0.0
281.7041678004535	1.5748321995465062	answer	Rien	-1	1	1.5748321995465062
283.279	6.653999999999996	ITI	Rien	0	0	0.0
289.933	0.7373015873015873	chloe	233_jeudi	0	0	0.0
290.6703015873016	1.1886984126983862	answer	Rien	-3	2	1.1886984126983862
291.859	6.112000000000023	ITI	Rien	0	0	0.0
297.971	0.464625850340136	chloe	233_penser	0	0	0.0
298.43562585034016	1.5533741496598168	answer	Rien	-3	3	1.5533741496598168
299.989	9.04400000000004	ITI	Rien	0	0	0.0
309.033	0.6176643990929706	anne	182_quatre	0	0	0.0
309.650664399093	1.8743356009069885	answer	Rien	-1	3	1.8743356009069885
311.525	6.5020000000000095	ITI	Rien	0	0	0.0
318.027	0.317687074829932	betty	214_hallo	0	0	0.0
318.3446870748299	0.7403129251700875	answer	Rien	-2	2	0.7403129251700875
319.085	8.492000000000019	ITI	Rien	0	0	0.0
327.577	0.7879138321995465	chloe	233_neutre	0	0	0.0
328.36491383219953	1.190086167800473	answer	Rien	-3	3	1.190086167800473
329.555	7.572999999999979	ITI	Rien	0	0	0.0
337.128	0.4126303854875283	anne	182_toussez	0	0	0.0
337.54063038548753	1.018369614512494	answer	Rien	-1	3	1.018369614512494
338.559	6.048999999999978	ITI	Rien	0	0	0.0
