onset	duration	trial_type	file	expected_answer	answer	reaction_time
0.0	2.069	ITI	Rien	0	0	0.0
2.069	0.6146031746031746	betty	214_francais	0	0	0.0
2.6836031746031743	0.5193968253968254	answer	Rien	-2	1	0.5193968253968254
3.203	8.019	ITI	Rien	0	0	0.0
11.222	0.33918367346938777	betty	214_penser	0	0	0.0
11.561183673469387	1.009816326530612	answer	Rien	-2	2	1.009816326530612
12.570999999999998	7.962000000000003	ITI	Rien	0	0	0.0
20.533	0.6468934240362811	anne	182_voyelle	0	0	0.0
21.179893424036283	0.9151065759637164	answer	Rien	-1	1	0.9151065759637164
22.095	7.670999999999999	ITI	Rien	0	0	0.0
29.766	0.7329705215419501	chloe	233_quatre	0	0	0.0
30.49897052154195	0.2360294784580516	answer	Rien	-3	3	0.2360294784580516
30.735	8.660000000000004	ITI	Rien	0	0	0.0
39.395	0.4214739229024944	betty	214_toussez	0	0	0.0
39.816473922902496	1.0485260770975025	answer	Rien	-2	2	1.0485260770975025
40.864999999999995	8.319000000000003	ITI	Rien	0	0	0.0
49.184	0.7930385487528344	chloe	233_lundi	0	0	0.0
49.97703854875283	0.7299614512471704	answer	Rien	-3	3	0.7299614512471704
50.707	7.628999999999998	ITI	Rien	0	0	0.0
58.336	0.6907256235827665	anne	182_neutre	0	0	0.0
59.02672562358276	1.2442743764172324	answer	Rien	-1	1	1.2442743764172324
60.270999999999994	7.537000000000013	ITI	Rien	0	0	0.0
67.808	0.4803174603174603	anne	182_pouvez	0	0	0.0
68.28831746031747	0.7026825396825276	answer	Rien	-1	3	0.7026825396825276
68.991	8.447000000000003	ITI	Rien	0	0	0.0
77.438	0.5071655328798186	betty	214_neutre	0	0	0.0
77.94516553287983	1.4798344671201835	answer	Rien	-2	2	1.4798344671201835
79.42500000000001	7.005999999999986	ITI	Rien	0	0	0.0
86.431	0.6693197278911565	anne	182_francais	0	0	0.0
87.10031972789115	0.44068027210885174	answer	Rien	-1	1	0.44068027210885174
87.541	8.122	ITI	Rien	0	0	0.0
95.663	0.5902040816326529	chloe	233_toussez	0	0	0.0
96.25320408163265	0.35979591836734753	answer	Rien	-3	3	0.35979591836734753
96.613	9.713999999999999	ITI	Rien	0	0	0.0
106.327	0.3878458049886621	betty	214_pouvez	0	0	0.0
106.71484580498866	0.8441541950113465	answer	Rien	-2	2	0.8441541950113465
107.559	7.9210000000000065	ITI	Rien	0	0	0.0
115.48	0.4651927437641724	anne	182_hallo	0	0	0.0
115.94519274376418	1.0798072562358296	answer	Rien	-1	1	1.0798072562358296
117.025	7.447999999999993	ITI	Rien	0	0	0.0
124.473	0.42	betty	214_partie	0	0	0.0
124.893	0.6640000000000039	answer	Rien	-2	2	0.6640000000000039
125.557	7.590999999999994	ITI	Rien	0	0	0.0
133.148	0.8311337868480726	chloe	233_francais	0	0	0.0
133.97913378684808	0.4858662131519322	answer	Rien	-3	3	0.4858662131519322
134.465	8.550999999999988	ITI	Rien	0	0	0.0
143.016	0.7627664399092969	anne	182_mardi	0	0	0.0
143.77876643990928	1.2142335600907237	answer	Rien	-1	2	1.2142335600907237
144.993	10.040999999999997	ITI	Rien	0	0	0.0
155.034	0.7115419501133787	chloe	233_voyelle	0	0	0.0
155.74554195011336	0.8014580498866419	answer	Rien	-3	3	0.8014580498866419
156.547	8.675000000000011	ITI	Rien	0	0	0.0
165.222	0.483061224489796	anne	182_partie	0	0	0.0
165.7050612244898	1.333938775510192	answer	Rien	-1	2	1.333938775510192
167.03900000000002	8.448999999999984	ITI	Rien	0	0	0.0
175.488	0.4357142857142857	chloe	233_hallo	0	0	0.0
175.92371428571428	1.0172857142857181	answer	Rien	-3	3	1.0172857142857181
176.941	8.257000000000005	ITI	Rien	0	0	0.0
185.198	0.6852380952380952	betty	214_mardi	0	0	0.0
185.8832380952381	0.9397619047618846	answer	Rien	-2	2	0.9397619047618846
186.823	8.959000000000003	ITI	Rien	0	0	0.0
195.782	0.5778684807256236	chloe	233_partie	0	0	0.0
196.35986848072562	0.5431315192743769	answer	Rien	-3	3	0.5431315192743769
196.903	7.951999999999998	ITI	Rien	0	0	0.0
204.855	0.4849206349206349	betty	214_voyelle	0	0	0.0
205.33992063492062	0.5730793650793862	answer	Rien	-2	2	0.5730793650793862
205.913	8.889999999999986	ITI	Rien	0	0	0.0
214.803	0.7290702947845805	anne	182_jeudi	0	0	0.0
215.53207029478457	0.2709297052154117	answer	Rien	-1	1	0.2709297052154117
215.803	9.266999999999996	ITI	Rien	0	0	0.0
225.07	0.5675963718820861	betty	214_lundi	0	0	0.0
225.63759637188207	1.0634036281179142	answer	Rien	-2	2	1.0634036281179142
226.701	7.203000000000003	ITI	Rien	0	0	0.0
233.904	0.8059410430839002	chloe	233_mardi	0	0	0.0
234.7099410430839	0.6070589569160998	answer	Rien	-3	3	0.6070589569160998
235.31699999999998	8.058000000000021	ITI	Rien	0	0	0.0
243.375	0.4	chloe	233_pouvez	0	0	0.0
243.775	1.0720000000000085	answer	Rien	-3	2	1.0720000000000085
244.847	7.760999999999996	ITI	Rien	0	0	0.0
252.608	0.6878231292517006	anne	182_lundi	0	0	0.0
253.29582312925172	0.28317687074830755	answer	Rien	-1	1	0.28317687074830755
253.57900000000004	8.10099999999997	ITI	Rien	0	0	0.0
261.68	0.6545351473922902	betty	214_jeudi	0	0	0.0
262.3345351473923	1.170464852607718	answer	Rien	-2	2	1.170464852607718
263.505	8.124000000000024	ITI	Rien	0	0	0.0
271.629	0.4672789115646258	betty	214_quatre	0	0	0.0
272.09627891156464	0.4567210884353337	answer	Rien	-2	3	0.4567210884353337
272.553	8.704999999999984	ITI	Rien	0	0	0.0
281.258	0.4461678004535147	anne	182_penser	0	0	0.0
281.7041678004535	0.532832199546494	answer	Rien	-1	1	0.532832199546494
282.23699999999997	7.696000000000026	ITI	Rien	0	0	0.0
289.933	0.7373015873015873	chloe	233_jeudi	0	0	0.0
290.6703015873016	1.2686984126984049	answer	Rien	-3	2	1.2686984126984049
291.939	6.031999999999982	ITI	Rien	0	0	0.0
297.971	0.464625850340136	chloe	233_penser	0	0	0.0
298.43562585034016	0.6953741496598804	answer	Rien	-3	1	0.6953741496598804
299.13100000000003	9.902999999999963	ITI	Rien	0	0	0.0
309.034	0.6176643990929706	anne	182_quatre	0	0	0.0
309.65166439909297	1.3693356009070374	answer	Rien	-1	1	1.3693356009070374
311.021	7.005999999999972	ITI	Rien	0	0	0.0
318.027	0.317687074829932	betty	214_hallo	0	0	0.0
318.3446870748299	0.8483129251700925	answer	Rien	-2	3	0.8483129251700925
319.193	8.384999999999991	ITI	Rien	0	0	0.0
327.578	0.7879138321995465	chloe	233_neutre	0	0	0.0
328.3659138321995	1.6950861678004536	answer	Rien	-3	3	1.6950861678004536
330.061	7.066000000000031	ITI	Rien	0	0	0.0
337.127	0.4126303854875283	anne	182_toussez	0	0	0.0
337.53963038548756	1.5933696145124805	answer	Rien	-1	2	1.5933696145124805
339.13300000000004	5.475999999999942	ITI	Rien	0	0	0.0
