onset	duration	trial_type	file	expected_answer	answer	reaction_time
0.0	2.07	ITI	Rien	0	0	0.0
2.07	0.6146031746031746	betty	214_francais	0	0	0.0
2.6846031746031747	1.4333968253968254	answer	Rien	-2	1	1.4333968253968254
4.118	7.103999999999999	ITI	Rien	0	0	0.0
11.222	0.33918367346938777	betty	214_penser	0	0	0.0
11.561183673469387	2.148816326530612	answer	Rien	-2	1	2.148816326530612
13.709999999999999	6.824	ITI	Rien	0	0	0.0
20.534	0.6468934240362811	anne	182_voyelle	0	0	0.0
21.18089342403628	2.96110657596372	answer	Rien	-1	2	2.96110657596372
24.142	5.623000000000001	ITI	Rien	0	0	0.0
29.765	0.7329705215419501	chloe	233_quatre	0	0	0.0
30.49797052154195	2.5860294784580495	answer	Rien	-3	3	2.5860294784580495
33.084	6.311999999999998	ITI	Rien	0	0	0.0
39.396	0.4214739229024944	betty	214_toussez	0	0	0.0
39.817473922902494	2.632526077097502	answer	Rien	-2	2	2.632526077097502
42.449999999999996	6.734000000000002	ITI	Rien	0	0	0.0
49.184	0.7930385487528344	chloe	233_lundi	0	0	0.0
49.97703854875283	1.6969614512471705	answer	Rien	-3	2	1.6969614512471705
51.674	6.663000000000004	ITI	Rien	0	0	0.0
58.337	0.6907256235827665	anne	182_neutre	0	0	0.0
59.02772562358277	0.4982743764172275	answer	Rien	-1	1	0.4982743764172275
59.525999999999996	8.28200000000001	ITI	Rien	0	0	0.0
67.808	0.4803174603174603	anne	182_pouvez	0	0	0.0
68.28831746031747	2.1796825396825277	answer	Rien	-1	3	2.1796825396825277
70.468	6.969999999999999	ITI	Rien	0	0	0.0
77.438	0.5071655328798186	betty	214_neutre	0	0	0.0
77.94516553287983	1.2348344671201836	answer	Rien	-2	2	1.2348344671201836
79.18	7.250999999999991	ITI	Rien	0	0	0.0
86.431	0.6693197278911565	anne	182_francais	0	0	0.0
87.10031972789115	2.4776802721088518	answer	Rien	-1	2	2.4776802721088518
89.578	6.084999999999994	ITI	Rien	0	0	0.0
95.663	0.5902040816326529	chloe	233_toussez	0	0	0.0
96.25320408163265	0.30679591836734754	answer	Rien	-3	3	0.30679591836734754
96.55999999999999	9.768000000000015	ITI	Rien	0	0	0.0
106.328	0.3878458049886621	betty	214_pouvez	0	0	0.0
106.71584580498866	2.2881541950113324	answer	Rien	-2	2	2.2881541950113324
109.00399999999999	6.476000000000013	ITI	Rien	0	0	0.0
115.48	0.4651927437641724	anne	182_hallo	0	0	0.0
115.94519274376418	2.5748072562358297	answer	Rien	-1	2	2.5748072562358297
118.52000000000001	5.9539999999999935	ITI	Rien	0	0	0.0
124.474	0.42	betty	214_partie	0	0	0.0
124.894	1.6459999999999897	answer	Rien	-2	1	1.6459999999999897
126.53999999999999	6.608000000000004	ITI	Rien	0	0	0.0
133.148	0.8311337868480726	chloe	233_francais	0	0	0.0
133.97913378684808	2.4248662131519323	answer	Rien	-3	2	2.4248662131519323
136.40400000000002	6.612999999999971	ITI	Rien	0	0	0.0
143.017	0.7627664399092969	anne	182_mardi	0	0	0.0
143.77976643990928	0.0	answer	Rien	-1	0	0.0
143.77976643990928	11.25423356009071	ITI	Rien	0	0	0.0
155.034	0.7115419501133787	chloe	233_voyelle	0	0	0.0
155.74554195011336	2.486458049886642	answer	Rien	-3	2	2.486458049886642
158.232	6.990000000000009	ITI	Rien	0	0	0.0
165.222	0.483061224489796	anne	182_partie	0	0	0.0
165.7050612244898	2.828938775510192	answer	Rien	-1	2	2.828938775510192
168.534	6.954000000000008	ITI	Rien	0	0	0.0
175.488	0.4357142857142857	chloe	233_hallo	0	0	0.0
175.92371428571428	0.5482857142857182	answer	Rien	-3	3	0.5482857142857182
176.472	8.725999999999999	ITI	Rien	0	0	0.0
185.198	0.6852380952380952	betty	214_mardi	0	0	0.0
185.8832380952381	1.2187619047618845	answer	Rien	-2	1	1.2187619047618845
187.102	8.680999999999983	ITI	Rien	0	0	0.0
195.783	0.5778684807256236	chloe	233_partie	0	0	0.0
196.3608684807256	1.0291315192743768	answer	Rien	-3	3	1.0291315192743768
197.39	7.465000000000003	ITI	Rien	0	0	0.0
204.855	0.4849206349206349	betty	214_voyelle	0	0	0.0
205.33992063492062	1.3120793650793814	answer	Rien	-2	1	1.3120793650793814
206.652	8.152000000000015	ITI	Rien	0	0	0.0
214.804	0.7290702947845805	anne	182_jeudi	0	0	0.0
215.53307029478458	0.8689297052154118	answer	Rien	-1	2	0.8689297052154118
216.402	8.668000000000006	ITI	Rien	0	0	0.0
225.07	0.5675963718820861	betty	214_lundi	0	0	0.0
225.63759637188207	2.7744036281179145	answer	Rien	-2	2	2.7744036281179145
228.41199999999998	5.493000000000023	ITI	Rien	0	0	0.0
233.905	0.8059410430839002	chloe	233_mardi	0	0	0.0
234.7109410430839	2.5590589569161	answer	Rien	-3	3	2.5590589569161
237.26999999999998	6.105000000000018	ITI	Rien	0	0	0.0
243.375	0.4	chloe	233_pouvez	0	0	0.0
243.775	0.0	answer	Rien	-3	0	0.0
243.775	8.831999999999994	ITI	Rien	0	0	0.0
252.607	0.6878231292517006	anne	182_lundi	0	0	0.0
253.2948231292517	0.2331768707483123	answer	Rien	-1	1	0.2331768707483123
253.52800000000002	8.151999999999987	ITI	Rien	0	0	0.0
261.68	0.6545351473922902	betty	214_jeudi	0	0	0.0
262.3345351473923	1.2154648526077179	answer	Rien	-2	2	1.2154648526077179
263.55	8.079000000000008	ITI	Rien	0	0	0.0
271.629	0.4672789115646258	betty	214_quatre	0	0	0.0
272.09627891156464	0.0	answer	Rien	-2	0	0.0
272.09627891156464	9.162721088435376	ITI	Rien	0	0	0.0
281.259	0.4461678004535147	anne	182_penser	0	0	0.0
281.7051678004535	0.4208321995464608	answer	Rien	-1	1	0.4208321995464608
282.126	7.807000000000016	ITI	Rien	0	0	0.0
289.933	0.7373015873015873	chloe	233_jeudi	0	0	0.0
290.6703015873016	0.6236984126984049	answer	Rien	-3	3	0.6236984126984049
291.294	6.677000000000021	ITI	Rien	0	0	0.0
297.971	0.464625850340136	chloe	233_penser	0	0	0.0
298.43562585034016	1.592374149659857	answer	Rien	-3	1	1.592374149659857
300.028	9.005999999999972	ITI	Rien	0	0	0.0
309.034	0.6176643990929706	anne	182_quatre	0	0	0.0
309.65166439909297	2.0583356009070375	answer	Rien	-1	3	2.0583356009070375
311.71	6.3180000000000405	ITI	Rien	0	0	0.0
318.028	0.317687074829932	betty	214_hallo	0	0	0.0
318.3456870748299	2.786312925170036	answer	Rien	-2	2	2.786312925170036
321.13199999999995	6.446000000000026	ITI	Rien	0	0	0.0
327.578	0.7879138321995465	chloe	233_neutre	0	0	0.0
328.3659138321995	0.9420861678004535	answer	Rien	-3	2	0.9420861678004535
329.30799999999994	7.82000000000005	ITI	Rien	0	0	0.0
337.128	0.4126303854875283	anne	182_toussez	0	0	0.0
337.54063038548753	0.5993696145124804	answer	Rien	-1	1	0.5993696145124804
338.14	6.468999999999994	ITI	Rien	0	0	0.0
