onset	duration	trial_type	file	expected_answer	answer	reaction_time
0.0	2.07	ITI	Rien	0	0	0.0
2.07	0.5071655328798186	betty	214_neutre	0	0	0.0
2.5771655328798184	0.7408344671201813	answer	Rien	-2	2	0.7408344671201813
3.3179999999999996	8.302	ITI	Rien	0	0	0.0
11.62	0.317687074829932	betty	214_hallo	0	0	0.0
11.937687074829931	1.1583129251700695	answer	Rien	-2	3	1.1583129251700695
13.096	7.119	ITI	Rien	0	0	0.0
20.215	0.483061224489796	anne	182_partie	0	0	0.0
20.698061224489795	0.6999387755102038	answer	Rien	-1	1	0.6999387755102038
21.398	7.809999999999999	ITI	Rien	0	0	0.0
29.208	0.7879138321995465	chloe	233_neutre	0	0	0.0
29.995913832199545	1.2940861678004547	answer	Rien	-3	2	1.2940861678004547
31.29	7.469000000000001	ITI	Rien	0	0	0.0
38.759	0.7290702947845805	anne	182_jeudi	0	0	0.0
39.48807029478458	0.7179297052154189	answer	Rien	-1	1	0.7179297052154189
40.205999999999996	7.785000000000004	ITI	Rien	0	0	0.0
47.991	0.8311337868480726	chloe	233_francais	0	0	0.0
48.82213378684807	0.4538662131519274	answer	Rien	-3	2	0.4538662131519274
49.275999999999996	8.186000000000007	ITI	Rien	0	0	0.0
57.462	0.464625850340136	chloe	233_penser	0	0	0.0
57.92662585034014	0.7753741496598592	answer	Rien	-3	2	0.7753741496598592
58.702	7.832000000000008	ITI	Rien	0	0	0.0
66.534	0.4214739229024944	betty	214_toussez	0	0	0.0
66.9554739229025	1.7185260770975	answer	Rien	-2	2	1.7185260770975
68.67399999999999	7.729000000000013	ITI	Rien	0	0	0.0
76.403	0.7627664399092969	anne	182_mardi	0	0	0.0
77.1657664399093	1.8882335600906952	answer	Rien	-1	1	1.8882335600906952
79.054	6.899000000000001	ITI	Rien	0	0	0.0
85.953	0.4	chloe	233_pouvez	0	0	0.0
86.35300000000001	1.3189999999999946	answer	Rien	-3	3	1.3189999999999946
87.672	7.832000000000008	ITI	Rien	0	0	0.0
95.504	0.6878231292517006	anne	182_lundi	0	0	0.0
96.1918231292517	0.5921768707482933	answer	Rien	-1	1	0.5921768707482933
96.78399999999999	9.304000000000002	ITI	Rien	0	0	0.0
106.088	0.42	betty	214_partie	0	0	0.0
106.508	1.4320000000000088	answer	Rien	-2	2	1.4320000000000088
107.94	7.938000000000002	ITI	Rien	0	0	0.0
115.878	0.4126303854875283	anne	182_toussez	0	0	0.0
116.29063038548753	1.7473696145124755	answer	Rien	-1	1	1.7473696145124755
118.03800000000001	6.992999999999995	ITI	Rien	0	0	0.0
125.031	0.3878458049886621	betty	214_pouvez	0	0	0.0
125.41884580498866	0.6891541950113276	answer	Rien	-2	2	0.6891541950113276
126.10799999999999	9.905000000000015	ITI	Rien	0	0	0.0
136.013	0.7115419501133787	chloe	233_voyelle	0	0	0.0
136.72454195011338	1.7334580498866137	answer	Rien	-3	3	1.7334580498866137
138.458	7.1059999999999945	ITI	Rien	0	0	0.0
145.564	0.4651927437641724	anne	182_hallo	0	0	0.0
146.02919274376416	0.7888072562358439	answer	Rien	-1	1	0.7888072562358439
146.818	8.135999999999996	ITI	Rien	0	0	0.0
154.954	0.6146031746031746	betty	214_francais	0	0	0.0
155.56860317460317	1.0353968253968258	answer	Rien	-2	2	1.0353968253968258
156.60399999999998	10.209000000000003	ITI	Rien	0	0	0.0
166.813	0.5902040816326529	chloe	233_toussez	0	0	0.0
167.40320408163265	1.3727959183673475	answer	Rien	-3	3	1.3727959183673475
168.776	7.030000000000001	ITI	Rien	0	0	0.0
175.806	0.4849206349206349	betty	214_voyelle	0	0	0.0
176.29092063492064	1.181079365079353	answer	Rien	-2	2	1.181079365079353
177.47199999999998	7.805000000000007	ITI	Rien	0	0	0.0
185.277	0.4357142857142857	chloe	233_hallo	0	0	0.0
185.71271428571427	1.165285714285723	answer	Rien	-3	1	1.165285714285723
186.878	7.074000000000012	ITI	Rien	0	0	0.0
193.952	0.4803174603174603	anne	182_pouvez	0	0	0.0
194.43231746031745	0.7776825396825324	answer	Rien	-1	1	0.7776825396825324
195.20999999999998	8.531000000000034	ITI	Rien	0	0	0.0
203.741	0.4672789115646258	betty	214_quatre	0	0	0.0
204.20827891156463	2.5037210884353622	answer	Rien	-2	3	2.5037210884353622
206.712	7.296000000000021	ITI	Rien	0	0	0.0
214.008	0.8059410430839002	chloe	233_mardi	0	0	0.0
214.8139410430839	1.0760589569160761	answer	Rien	-3	3	1.0760589569160761
215.89	7.190000000000026	ITI	Rien	0	0	0.0
223.08	0.6693197278911565	anne	182_francais	0	0	0.0
223.74931972789116	0.24068027210882809	answer	Rien	-1	2	0.24068027210882809
223.98999999999998	8.084000000000032	ITI	Rien	0	0	0.0
232.074	0.6176643990929706	anne	182_quatre	0	0	0.0
232.69166439909299	2.0883356009070093	answer	Rien	-1	1	2.0883356009070093
234.78	7.162000000000006	ITI	Rien	0	0	0.0
241.942	0.7373015873015873	chloe	233_jeudi	0	0	0.0
242.6793015873016	1.612698412698405	answer	Rien	-3	3	1.612698412698405
244.292	5.688999999999993	ITI	Rien	0	0	0.0
249.981	0.5778684807256236	chloe	233_partie	0	0	0.0
250.5588684807256	2.6351315192743767	answer	Rien	-3	3	2.6351315192743767
253.194	5.938999999999993	ITI	Rien	0	0	0.0
259.133	0.5675963718820861	betty	214_lundi	0	0	0.0
259.70059637188206	1.3794036281179145	answer	Rien	-2	2	1.3794036281179145
261.08	8.718000000000018	ITI	Rien	0	0	0.0
269.798	0.6545351473922902	betty	214_jeudi	0	0	0.0
270.45253514739227	0.29746485260771793	answer	Rien	-2	2	0.29746485260771793
270.75	8.995999999999981	ITI	Rien	0	0	0.0
279.746	0.7329705215419501	chloe	233_quatre	0	0	0.0
280.47897052154195	0.7670294784580658	answer	Rien	-3	3	0.7670294784580658
281.24600000000004	7.811999999999955	ITI	Rien	0	0	0.0
289.058	0.33918367346938777	betty	214_penser	0	0	0.0
289.3971836734694	0.8508163265306368	answer	Rien	-2	2	0.8508163265306368
290.24800000000005	7.642999999999972	ITI	Rien	0	0	0.0
297.891	0.6468934240362811	anne	182_voyelle	0	0	0.0
298.5378934240363	0.6861065759637034	answer	Rien	-1	1	0.6861065759637034
299.22400000000005	8.854999999999961	ITI	Rien	0	0	0.0
308.079	0.4461678004535147	anne	182_penser	0	0	0.0
308.5251678004535	1.0008321995464606	answer	Rien	-1	2	1.0008321995464606
309.52599999999995	7.30800000000005	ITI	Rien	0	0	0.0
316.834	0.7930385487528344	chloe	233_lundi	0	0	0.0
317.62703854875286	1.1429614512471655	answer	Rien	-3	3	1.1429614512471655
318.77000000000004	8.329999999999984	ITI	Rien	0	0	0.0
327.1	0.6852380952380952	betty	214_mardi	0	0	0.0
327.7852380952381	0.9907619047618561	answer	Rien	-2	2	0.9907619047618561
328.776	8.113	ITI	Rien	0	0	0.0
336.889	0.6907256235827665	anne	182_neutre	0	0	0.0
337.57972562358276	2.1062743764172183	answer	Rien	-1	1	2.1062743764172183
339.686	4.923000000000002	ITI	Rien	0	0	0.0
