onset	duration	trial_type	expected_response	given_response	response_time
 0.000	 5.173	ITI	0	0	 0.000
 5.173	 0.557	speech	0	0	 0.000
 5.730	 4.377	ITI	0	0	 0.000
 10.107	 0.557	artificial	0	0	 0.000
 10.664	 4.139	ITI	0	0	 0.000
 14.803	 0.557	artificial	0	0	 0.000
 15.360	 5.332	ITI	0	0	 0.000
 20.692	 0.558	non_speech	0	0	 0.000
 21.250	 4.297	ITI	0	0	 0.000
 25.547	 0.557	emotional	0	0	 0.000
 26.104	 4.537	ITI	0	0	 0.000
 30.641	 0.557	animal	0	0	 0.000
 31.198	 4.775	ITI	0	0	 0.000
 35.973	 0.557	environmental	0	0	 0.000
 36.530	 4.616	ITI	0	0	 0.000
 41.146	 0.557	environmental	0	0	 0.000
 41.703	 4.377	ITI	0	0	 0.000
 46.080	 0.557	animal	0	0	 0.000
 46.637	 5.015	ITI	0	0	 0.000
 51.652	 0.557	animal	0	0	 0.000
 52.209	 4.377	ITI	0	0	 0.000
 56.586	 0.557	artificial	0	0	 0.000
 57.143	 4.377	ITI	0	0	 0.000
 61.520	 0.557	emotional	0	0	 0.000
 62.077	 4.378	ITI	0	0	 0.000
 66.455	 0.557	non_speech	0	0	 0.000
 67.012	 4.855	ITI	0	0	 0.000
 71.867	 0.557	non_speech	0	0	 0.000
 72.424	 4.217	ITI	0	0	 0.000
 76.641	 0.558	speech	0	0	 0.000
 77.199	 5.730	ITI	0	0	 0.000
 82.929	 0.557	emotional	0	0	 0.000
 83.486	 5.333	ITI	0	0	 0.000
 88.819	 0.557	non_speech	0	0	 0.000
 89.376	 4.536	ITI	0	0	 0.000
 93.912	 0.557	animal	0	0	 0.000
 94.469	 4.377	ITI	0	0	 0.000
 98.846	 0.557	artificial	0	0	 0.000
 99.403	 5.253	ITI	0	0	 0.000
 104.656	 0.557	emotional	0	0	 0.000
 105.213	 4.298	ITI	0	0	 0.000
 109.511	 0.557	emotional	0	0	 0.000
 110.068	 4.934	ITI	0	0	 0.000
 115.002	 0.557	environmental	0	0	 0.000
 115.559	 4.298	ITI	0	0	 0.000
 119.857	 0.557	artificial	0	0	 0.000
 120.414	 4.775	ITI	0	0	 0.000
 125.189	 0.557	emotional	0	0	 0.000
 125.746	 5.014	ITI	0	0	 0.000
 130.760	 0.557	speech	0	0	 0.000
 131.317	 4.617	ITI	0	0	 0.000
 135.934	 0.557	environmental	0	0	 0.000
 136.491	 4.457	ITI	0	0	 0.000
 140.948	 0.557	environmental	0	0	 0.000
 141.505	 4.297	ITI	0	0	 0.000
 145.802	 0.557	non_speech	0	0	 0.000
 146.359	 5.014	ITI	0	0	 0.000
 151.373	 0.557	speech	0	0	 0.000
 151.930	 4.935	ITI	0	0	 0.000
 156.865	 0.557	artificial	0	0	 0.000
 157.422	 4.934	ITI	0	0	 0.000
 162.356	 0.557	non_speech	0	0	 0.000
 162.913	 4.457	ITI	0	0	 0.000
 167.370	 0.557	animal	0	0	 0.000
 167.927	 4.219	ITI	0	0	 0.000
 172.146	 0.557	environmental	0	0	 0.000
 172.703	 5.013	ITI	0	0	 0.000
 177.716	 0.557	non_speech	0	0	 0.000
 178.273	 4.457	ITI	0	0	 0.000
 182.730	 0.557	speech	0	0	 0.000
 183.287	 4.856	ITI	0	0	 0.000
 188.143	 0.557	emotional	0	0	 0.000
 188.700	 4.377	ITI	0	0	 0.000
 193.077	 0.557	emotional	0	0	 0.000
 193.634	 5.173	ITI	0	0	 0.000
 198.807	 0.557	speech	0	0	 0.000
 199.364	 4.615	ITI	0	0	 0.000
 203.979	 0.558	artificial	0	0	 0.000
 204.537	 4.696	ITI	0	0	 0.000
 209.233	 0.557	environmental	0	0	 0.000
 209.790	 4.456	ITI	0	0	 0.000
 214.246	 0.557	animal	0	0	 0.000
 214.803	 4.537	ITI	0	0	 0.000
 219.340	 0.557	speech	0	0	 0.000
 219.897	 4.378	ITI	0	0	 0.000
 224.275	 0.557	speech	0	0	 0.000
 224.832	 4.456	ITI	0	0	 0.000
 229.288	 0.557	speech	0	0	 0.000
 229.845	 4.377	ITI	0	0	 0.000
 234.222	 0.558	artificial	0	0	 0.000
 234.780	 4.935	ITI	0	0	 0.000
 239.715	 0.557	non_speech	0	0	 0.000
 240.272	 5.252	ITI	0	0	 0.000
 245.524	 0.557	emotional	0	0	 0.000
 246.081	 4.298	ITI	0	0	 0.000
 250.379	 0.557	animal	0	0	 0.000
 250.936	 4.377	ITI	0	0	 0.000
 255.313	 0.557	speech	0	0	 0.000
 255.870	 4.378	ITI	0	0	 0.000
 260.248	 0.557	environmental	0	0	 0.000
 260.805	 5.252	ITI	0	0	 0.000
 266.057	 0.557	animal	0	0	 0.000
 266.614	 4.138	ITI	0	0	 0.000
 270.752	 0.558	animal	0	0	 0.000
 271.310	 4.775	ITI	0	0	 0.000
 276.085	 0.558	animal	0	0	 0.000
 276.643	 6.764	ITI	0	0	 0.000
 283.407	 0.557	artificial	0	0	 0.000
 283.964	 4.377	ITI	0	0	 0.000
 288.341	 0.557	emotional	0	0	 0.000
 288.898	 4.299	ITI	0	0	 0.000
 293.197	 0.557	artificial	0	0	 0.000
 293.754	 6.207	ITI	0	0	 0.000
 299.961	 0.557	environmental	0	0	 0.000
 300.518	 4.377	ITI	0	0	 0.000
 304.895	 0.557	animal	0	0	 0.000
 305.452	 4.299	ITI	0	0	 0.000
 309.751	 0.557	emotional	0	0	 0.000
 310.308	 4.456	ITI	0	0	 0.000
 314.764	 0.557	animal	0	0	 0.000
 315.321	 4.775	ITI	0	0	 0.000
 320.096	 0.557	emotional	0	0	 0.000
 320.653	 4.218	ITI	0	0	 0.000
 324.871	 0.557	non_speech	0	0	 0.000
 325.428	 4.299	ITI	0	0	 0.000
 329.727	 0.557	animal	0	0	 0.000
 330.284	 4.615	ITI	0	0	 0.000
 334.899	 0.557	environmental	0	0	 0.000
 335.456	 4.218	ITI	0	0	 0.000
 339.674	 0.557	artificial	0	0	 0.000
 340.231	 4.219	ITI	0	0	 0.000
 344.450	 0.557	non_speech	0	0	 0.000
 345.007	 4.537	ITI	0	0	 0.000
 349.544	 0.557	non_speech	0	0	 0.000
 350.101	 4.297	ITI	0	0	 0.000
 354.398	 0.557	animal	0	0	 0.000
 354.955	 4.536	ITI	0	0	 0.000
 359.491	 0.557	emotional	0	0	 0.000
 360.048	 4.219	ITI	0	0	 0.000
 364.267	 0.557	speech	0	0	 0.000
 364.824	 4.696	ITI	0	0	 0.000
 369.520	 0.557	non_speech	0	0	 0.000
 370.077	 4.377	ITI	0	0	 0.000
 374.454	 0.557	artificial	0	0	 0.000
 375.011	 4.378	ITI	0	0	 0.000
 379.389	 0.557	speech	0	0	 0.000
 379.946	 4.615	ITI	0	0	 0.000
 384.561	 0.558	environmental	0	0	 0.000
 385.119	 4.297	ITI	0	0	 0.000
 389.416	 0.557	animal	0	0	 0.000
 389.973	 4.616	ITI	0	0	 0.000
 394.589	 0.557	environmental	0	0	 0.000
 395.146	 4.139	ITI	0	0	 0.000
 399.285	 0.557	non_speech	0	0	 0.000
 399.842	 4.934	ITI	0	0	 0.000
 404.776	 0.557	emotional	0	0	 0.000
 405.333	 4.696	ITI	0	0	 0.000
 410.029	 0.557	emotional	0	0	 0.000
 410.586	 5.014	ITI	0	0	 0.000
 415.600	 0.557	non_speech	0	0	 0.000
 416.157	 4.457	ITI	0	0	 0.000
 420.614	 0.557	animal	0	0	 0.000
 421.171	 4.298	ITI	0	0	 0.000
 425.469	 0.557	non_speech	0	0	 0.000
 426.026	 5.013	ITI	0	0	 0.000
 431.039	 0.557	artificial	0	0	 0.000
 431.596	 4.299	ITI	0	0	 0.000
 435.895	 0.557	environmental	0	0	 0.000
 436.452	 5.571	ITI	0	0	 0.000
 442.023	 0.557	emotional	0	0	 0.000
 442.580	 4.138	ITI	0	0	 0.000
 446.718	 0.557	non_speech	0	0	 0.000
 447.275	 4.219	ITI	0	0	 0.000
 451.494	 0.557	environmental	0	0	 0.000
 452.051	 4.377	ITI	0	0	 0.000
 456.428	 0.557	emotional	0	0	 0.000
 456.985	 4.218	ITI	0	0	 0.000
 461.203	 0.557	speech	0	0	 0.000
 461.760	 4.695	ITI	0	0	 0.000
 466.455	 0.558	artificial	0	0	 0.000
 467.013	 4.616	ITI	0	0	 0.000
 471.629	 0.557	emotional	0	0	 0.000
 472.186	 4.616	ITI	0	0	 0.000
 476.802	 0.557	emotional	0	0	 0.000
 477.359	 4.616	ITI	0	0	 0.000
 481.975	 0.557	animal	0	0	 0.000
 482.532	 5.173	ITI	0	0	 0.000
 487.705	 0.558	environmental	0	0	 0.000
 488.263	 4.377	ITI	0	0	 0.000
 492.640	 0.557	speech	0	0	 0.000
 493.197	 4.297	ITI	0	0	 0.000
 497.494	 0.557	animal	0	0	 0.000
 498.051	 4.537	ITI	0	0	 0.000
 502.588	 0.557	artificial	0	0	 0.000
 503.145	 4.298	ITI	0	0	 0.000
 507.443	 0.557	non_speech	0	0	 0.000
 508.000	 4.377	ITI	0	0	 0.000
 512.377	 0.557	non_speech	0	0	 0.000
 512.934	 4.377	ITI	0	0	 0.000
 517.311	 0.557	speech	0	0	 0.000
 517.868	 4.458	ITI	0	0	 0.000
 522.326	 0.557	animal	0	0	 0.000
 522.883	 4.934	ITI	0	0	 0.000
 527.817	 0.557	artificial	0	0	 0.000
 528.374	 4.297	ITI	0	0	 0.000
 532.671	 0.557	emotional	0	0	 0.000
 533.228	 4.537	ITI	0	0	 0.000
 537.765	 0.558	environmental	0	0	 0.000
 538.323	 5.411	ITI	0	0	 0.000
 543.734	 0.557	environmental	0	0	 0.000
 544.291	 4.855	ITI	0	0	 0.000
 549.146	 0.557	animal	0	0	 0.000
 549.703	 4.377	ITI	0	0	 0.000
 554.080	 0.558	artificial	0	0	 0.000
 554.638	 4.377	ITI	0	0	 0.000
 559.015	 0.557	speech	0	0	 0.000
 559.572	 5.571	ITI	0	0	 0.000
 565.143	 0.557	speech	0	0	 0.000
 565.700	 4.297	ITI	0	0	 0.000
 569.997	 0.557	non_speech	0	0	 0.000
 570.554	 4.378	ITI	0	0	 0.000
 574.932	 0.557	non_speech	0	0	 0.000
 575.489	 4.377	ITI	0	0	 0.000
 579.866	 0.557	artificial	0	0	 0.000
 580.423	 4.218	ITI	0	0	 0.000
 584.641	 0.557	non_speech	0	0	 0.000
 585.198	 4.378	ITI	0	0	 0.000
 589.576	 0.557	speech	0	0	 0.000
 590.133	 4.536	ITI	0	0	 0.000
 594.669	 0.558	artificial	0	0	 0.000
 595.227	 4.297	ITI	0	0	 0.000
 599.524	 0.557	non_speech	0	0	 0.000
 600.081	 5.093	ITI	0	0	 0.000
 605.174	 0.557	artificial	0	0	 0.000
 605.731	 4.299	ITI	0	0	 0.000
 610.030	 0.557	animal	0	0	 0.000
 610.587	 4.377	ITI	0	0	 0.000
 614.964	 0.557	environmental	0	0	 0.000
 615.521	 5.889	ITI	0	0	 0.000
 621.410	 0.557	emotional	0	0	 0.000
 621.967	 4.537	ITI	0	0	 0.000
 626.504	 0.557	speech	0	0	 0.000
 627.061	 4.536	ITI	0	0	 0.000
 631.597	 0.557	non_speech	0	0	 0.000
 632.154	 4.537	ITI	0	0	 0.000
 636.691	 0.557	environmental	0	0	 0.000
 637.248	 5.094	ITI	0	0	 0.000
 642.342	 0.557	artificial	0	0	 0.000
 642.899	 4.138	ITI	0	0	 0.000
 647.037	 0.557	speech	0	0	 0.000
 647.594	 4.934	ITI	0	0	 0.000
 652.528	 0.558	emotional	0	0	 0.000
 653.086	 4.217	ITI	0	0	 0.000
 657.303	 0.557	artificial	0	0	 0.000
 657.860	 4.219	ITI	0	0	 0.000
 662.079	 0.557	non_speech	0	0	 0.000
 662.636	 4.298	ITI	0	0	 0.000
 666.934	 0.557	animal	0	0	 0.000
 667.491	 4.377	ITI	0	0	 0.000
 671.868	 0.557	speech	0	0	 0.000
 672.425	 4.855	ITI	0	0	 0.000
 677.280	 0.557	speech	0	0	 0.000
 677.837	 4.616	ITI	0	0	 0.000
 682.453	 0.557	animal	0	0	 0.000
 683.010	 4.457	ITI	0	0	 0.000
 687.467	 0.557	animal	0	0	 0.000
 688.024	 4.616	ITI	0	0	 0.000
 692.640	 0.557	artificial	0	0	 0.000
 693.197	 5.412	ITI	0	0	 0.000
 698.609	 0.557	environmental	0	0	 0.000
 699.166	 4.855	ITI	0	0	 0.000
 704.021	 0.557	environmental	0	0	 0.000
 704.578	 7.641	ITI	0	0	 0.000
 712.219	 0.557	speech	0	0	 0.000
 712.776	 4.138	ITI	0	0	 0.000
 716.914	 0.557	environmental	0	0	 0.000
 717.471	 4.696	ITI	0	0	 0.000
 722.167	 0.557	emotional	0	0	 0.000
 722.724	 4.377	ITI	0	0	 0.000
 727.101	 0.557	speech	0	0	 0.000
 727.658	 4.457	ITI	0	0	 0.000
 732.115	 0.557	emotional	0	0	 0.000
 732.672	 4.855	ITI	0	0	 0.000
 737.527	 0.557	environmental	0	0	 0.000
 738.084	 4.218	ITI	0	0	 0.000
 742.302	 0.557	artificial	0	0	 0.000
 742.859	 4.457	ITI	0	0	 0.000
 747.316	 0.557	environmental	0	0	 0.000
 747.873	 4.139	ITI	0	0	 0.000
 752.012	 4.138		0	0	 0.000
