onset	duration	trial_type	file	expected_answer	answer	reaction_time
0.0	2.07	ITI	Rien	0	0	0.0
2.07	0.5071655328798186	betty	214_neutre	0	0	0.0
2.5771655328798184	1.6708344671201814	answer	Rien	-2	2	1.6708344671201814
4.247999999999999	7.372	ITI	Rien	0	0	0.0
11.62	0.317687074829932	betty	214_hallo	0	0	0.0
11.937687074829931	2.3223129251700696	answer	Rien	-2	3	2.3223129251700696
14.260000000000002	5.9559999999999995	ITI	Rien	0	0	0.0
20.216	0.483061224489796	anne	182_partie	0	0	0.0
20.699061224489796	0.7449387755102026	answer	Rien	-1	1	0.7449387755102026
21.444	7.763999999999999	ITI	Rien	0	0	0.0
29.208	0.7879138321995465	chloe	233_neutre	0	0	0.0
29.995913832199545	1.6480861678004548	answer	Rien	-3	3	1.6480861678004548
31.644	7.115000000000002	ITI	Rien	0	0	0.0
38.759	0.7290702947845805	anne	182_jeudi	0	0	0.0
39.48807029478458	0.7039297052154189	answer	Rien	-1	1	0.7039297052154189
40.19199999999999	7.799000000000007	ITI	Rien	0	0	0.0
47.991	0.8311337868480726	chloe	233_francais	0	0	0.0
48.82213378684807	2.1018662131519275	answer	Rien	-3	2	2.1018662131519275
50.924	6.538000000000004	ITI	Rien	0	0	0.0
57.462	0.464625850340136	chloe	233_penser	0	0	0.0
57.92662585034014	1.7993741496598592	answer	Rien	-3	3	1.7993741496598592
59.726	6.808000000000007	ITI	Rien	0	0	0.0
66.534	0.4214739229024944	betty	214_toussez	0	0	0.0
66.9554739229025	1.7265260770975	answer	Rien	-2	3	1.7265260770975
68.682	7.721000000000004	ITI	Rien	0	0	0.0
76.403	0.7627664399092969	anne	182_mardi	0	0	0.0
77.1657664399093	0.5482335600906953	answer	Rien	-1	1	0.5482335600906953
77.714	8.239000000000004	ITI	Rien	0	0	0.0
85.953	0.4	chloe	233_pouvez	0	0	0.0
86.35300000000001	1.1269999999999945	answer	Rien	-3	3	1.1269999999999945
87.48	8.024000000000001	ITI	Rien	0	0	0.0
95.504	0.6878231292517006	anne	182_lundi	0	0	0.0
96.1918231292517	0.9121768707482933	answer	Rien	-1	1	0.9121768707482933
97.104	8.985	ITI	Rien	0	0	0.0
106.089	0.42	betty	214_partie	0	0	0.0
106.509	2.0849999999999946	answer	Rien	-2	3	2.0849999999999946
108.594	7.284000000000006	ITI	Rien	0	0	0.0
115.878	0.4126303854875283	anne	182_toussez	0	0	0.0
116.29063038548753	0.0	answer	Rien	-1	0	0.0
116.29063038548753	8.740369614512474	ITI	Rien	0	0	0.0
125.031	0.3878458049886621	betty	214_pouvez	0	0	0.0
125.41884580498866	2.3271541950113277	answer	Rien	-2	3	2.3271541950113277
127.746	8.26700000000001	ITI	Rien	0	0	0.0
136.013	0.7115419501133787	chloe	233_voyelle	0	0	0.0
136.72454195011338	1.9254580498866134	answer	Rien	-3	3	1.9254580498866134
138.64999999999998	6.914000000000016	ITI	Rien	0	0	0.0
145.564	0.4651927437641724	anne	182_hallo	0	0	0.0
146.02919274376416	1.226807256235844	answer	Rien	-1	1	1.226807256235844
147.256	7.699000000000012	ITI	Rien	0	0	0.0
154.955	0.6146031746031746	betty	214_francais	0	0	0.0
155.56960317460317	1.2683968253968212	answer	Rien	-2	2	1.2683968253968212
156.838	9.974999999999994	ITI	Rien	0	0	0.0
166.813	0.5902040816326529	chloe	233_toussez	0	0	0.0
167.40320408163265	0.0	answer	Rien	-3	0	0.0
167.40320408163265	8.403795918367337	ITI	Rien	0	0	0.0
175.807	0.4849206349206349	betty	214_voyelle	0	0	0.0
176.29192063492061	0.0	answer	Rien	-2	0	0.0
176.29192063492061	8.985079365079372	ITI	Rien	0	0	0.0
185.277	0.4357142857142857	chloe	233_hallo	0	0	0.0
185.71271428571427	0.6892857142857229	answer	Rien	-3	1	0.6892857142857229
186.402	7.551000000000016	ITI	Rien	0	0	0.0
193.953	0.4803174603174603	anne	182_pouvez	0	0	0.0
194.43331746031745	2.8926825396825273	answer	Rien	-1	1	2.8926825396825273
197.326	6.4150000000000205	ITI	Rien	0	0	0.0
203.741	0.4672789115646258	betty	214_quatre	0	0	0.0
204.20827891156463	2.483721088435362	answer	Rien	-2	3	2.483721088435362
206.692	7.3160000000000025	ITI	Rien	0	0	0.0
214.008	0.8059410430839002	chloe	233_mardi	0	0	0.0
214.8139410430839	1.200058956916076	answer	Rien	-3	2	1.200058956916076
216.01399999999998	7.067000000000007	ITI	Rien	0	0	0.0
223.081	0.6693197278911565	anne	182_francais	0	0	0.0
223.75031972789114	0.9216802721088517	answer	Rien	-1	1	0.9216802721088517
224.672	7.402000000000015	ITI	Rien	0	0	0.0
232.074	0.6176643990929706	anne	182_quatre	0	0	0.0
232.69166439909299	1.134335600907014	answer	Rien	-1	1	1.134335600907014
233.826	8.116000000000014	ITI	Rien	0	0	0.0
241.942	0.7373015873015873	chloe	233_jeudi	0	0	0.0
242.6793015873016	0.0	answer	Rien	-3	0	0.0
242.6793015873016	7.301698412698386	ITI	Rien	0	0	0.0
249.981	0.5778684807256236	chloe	233_partie	0	0	0.0
250.5588684807256	1.2791315192743768	answer	Rien	-3	2	1.2791315192743768
251.838	7.2949999999999875	ITI	Rien	0	0	0.0
259.133	0.5675963718820861	betty	214_lundi	0	0	0.0
259.70059637188206	1.6334036281179145	answer	Rien	-2	3	1.6334036281179145
261.33399999999995	8.464000000000055	ITI	Rien	0	0	0.0
269.798	0.6545351473922902	betty	214_jeudi	0	0	0.0
270.45253514739227	2.3934648526077176	answer	Rien	-2	2	2.3934648526077176
272.846	6.899999999999977	ITI	Rien	0	0	0.0
279.746	0.7329705215419501	chloe	233_quatre	0	0	0.0
280.47897052154195	2.6450294784580755	answer	Rien	-3	2	2.6450294784580755
283.124	5.933999999999969	ITI	Rien	0	0	0.0
289.058	0.33918367346938777	betty	214_penser	0	0	0.0
289.3971836734694	2.148816326530637	answer	Rien	-2	2	2.148816326530637
291.54600000000005	6.34499999999997	ITI	Rien	0	0	0.0
297.891	0.6468934240362811	anne	182_voyelle	0	0	0.0
298.5378934240363	0.8781065759636798	answer	Rien	-1	1	0.8781065759636798
299.416	8.663000000000011	ITI	Rien	0	0	0.0
308.079	0.4461678004535147	anne	182_penser	0	0	0.0
308.5251678004535	1.4748321995464608	answer	Rien	-1	1	1.4748321995464608
310.0	6.834000000000003	ITI	Rien	0	0	0.0
316.834	0.7930385487528344	chloe	233_lundi	0	0	0.0
317.62703854875286	1.3929614512471655	answer	Rien	-3	3	1.3929614512471655
319.02000000000004	8.079999999999984	ITI	Rien	0	0	0.0
327.1	0.6852380952380952	betty	214_mardi	0	0	0.0
327.7852380952381	1.0147619047618561	answer	Rien	-2	2	1.0147619047618561
328.8	8.088999999999999	ITI	Rien	0	0	0.0
336.889	0.6907256235827665	anne	182_neutre	0	0	0.0
337.57972562358276	0.6222743764172181	answer	Rien	-1	1	0.6222743764172181
338.202	6.406999999999982	ITI	Rien	0	0	0.0
