onset	duration	trial_type	file	expected_answer	answer	reaction_time
0.0	2.069	ITI	Rien	0	0	0.0
2.069	0.6146031746031746	betty	214_francais	0	0	0.0
2.6836031746031743	1.0313968253968253	answer	Rien	-2	3	1.0313968253968253
3.715	7.507	ITI	Rien	0	0	0.0
11.222	0.33918367346938777	betty	214_penser	0	0	0.0
11.561183673469387	1.3518163265306118	answer	Rien	-2	3	1.3518163265306118
12.912999999999998	7.620000000000003	ITI	Rien	0	0	0.0
20.533	0.6468934240362811	anne	182_voyelle	0	0	0.0
21.179893424036283	0.5371065759637177	answer	Rien	-1	1	0.5371065759637177
21.717000000000002	8.048999999999996	ITI	Rien	0	0	0.0
29.766	0.7329705215419501	chloe	233_quatre	0	0	0.0
30.49897052154195	0.6740294784580528	answer	Rien	-3	3	0.6740294784580528
31.173000000000002	8.222000000000001	ITI	Rien	0	0	0.0
39.395	0.4214739229024944	betty	214_toussez	0	0	0.0
39.816473922902496	1.0165260770975	answer	Rien	-2	2	1.0165260770975
40.833	8.352000000000004	ITI	Rien	0	0	0.0
49.185	0.7930385487528344	chloe	233_lundi	0	0	0.0
49.978038548752835	2.0989614512471655	answer	Rien	-3	3	2.0989614512471655
52.077	6.260000000000005	ITI	Rien	0	0	0.0
58.337	0.6907256235827665	anne	182_neutre	0	0	0.0
59.02772562358277	0.5652743764172276	answer	Rien	-1	1	0.5652743764172276
59.592999999999996	8.21500000000001	ITI	Rien	0	0	0.0
67.808	0.4803174603174603	anne	182_pouvez	0	0	0.0
68.28831746031747	2.8906825396825275	answer	Rien	-1	3	2.8906825396825275
71.179	6.257999999999996	ITI	Rien	0	0	0.0
77.437	0.5071655328798186	betty	214_neutre	0	0	0.0
77.94416553287982	0.9868344671201836	answer	Rien	-2	2	0.9868344671201836
78.93100000000001	7.499999999999986	ITI	Rien	0	0	0.0
86.431	0.6693197278911565	anne	182_francais	0	0	0.0
87.10031972789115	0.6386802721088517	answer	Rien	-1	1	0.6386802721088517
87.739	7.923999999999992	ITI	Rien	0	0	0.0
95.663	0.5902040816326529	chloe	233_toussez	0	0	0.0
96.25320408163265	0.5497959183673475	answer	Rien	-3	3	0.5497959183673475
96.803	9.525000000000006	ITI	Rien	0	0	0.0
106.328	0.3878458049886621	betty	214_pouvez	0	0	0.0
106.71584580498866	2.243154195011342	answer	Rien	-2	2	2.243154195011342
108.959	6.521000000000001	ITI	Rien	0	0	0.0
115.48	0.4651927437641724	anne	182_hallo	0	0	0.0
115.94519274376418	0.5698072562358203	answer	Rien	-1	1	0.5698072562358203
116.515	7.957999999999998	ITI	Rien	0	0	0.0
124.473	0.42	betty	214_partie	0	0	0.0
124.893	0.7799999999999945	answer	Rien	-2	2	0.7799999999999945
125.673	7.475999999999999	ITI	Rien	0	0	0.0
133.149	0.8311337868480726	chloe	233_francais	0	0	0.0
133.98013378684809	0.9548662131519274	answer	Rien	-3	3	0.9548662131519274
134.935	8.081999999999994	ITI	Rien	0	0	0.0
143.017	0.7627664399092969	anne	182_mardi	0	0	0.0
143.77976643990928	1.2312335600906952	answer	Rien	-1	2	1.2312335600906952
145.01099999999997	10.02400000000003	ITI	Rien	0	0	0.0
155.035	0.7115419501133787	chloe	233_voyelle	0	0	0.0
155.74654195011337	0.7244580498866372	answer	Rien	-3	3	0.7244580498866372
156.471	8.75	ITI	Rien	0	0	0.0
165.221	0.483061224489796	anne	182_partie	0	0	0.0
165.7040612244898	0.9269387755101919	answer	Rien	-1	1	0.9269387755101919
166.631	8.857	ITI	Rien	0	0	0.0
175.488	0.4357142857142857	chloe	233_hallo	0	0	0.0
175.92371428571428	1.721285714285723	answer	Rien	-3	3	1.721285714285723
177.645	7.552999999999997	ITI	Rien	0	0	0.0
185.198	0.6852380952380952	betty	214_mardi	0	0	0.0
185.8832380952381	1.0097619047618847	answer	Rien	-2	2	1.0097619047618847
186.893	8.889999999999986	ITI	Rien	0	0	0.0
195.783	0.5778684807256236	chloe	233_partie	0	0	0.0
196.3608684807256	0.6481315192744005	answer	Rien	-3	3	0.6481315192744005
197.009	7.847000000000008	ITI	Rien	0	0	0.0
204.856	0.4849206349206349	betty	214_voyelle	0	0	0.0
205.34092063492062	0.8360793650793814	answer	Rien	-2	2	0.8360793650793814
206.177	8.62700000000001	ITI	Rien	0	0	0.0
214.804	0.7290702947845805	anne	182_jeudi	0	0	0.0
215.53307029478458	0.341929705215407	answer	Rien	-1	1	0.341929705215407
215.875	9.195999999999998	ITI	Rien	0	0	0.0
225.071	0.5675963718820861	betty	214_lundi	0	0	0.0
225.63859637188207	1.5464036281179094	answer	Rien	-2	3	1.5464036281179094
227.18499999999997	6.7190000000000225	ITI	Rien	0	0	0.0
233.904	0.8059410430839002	chloe	233_mardi	0	0	0.0
234.7099410430839	1.5610589569161046	answer	Rien	-3	3	1.5610589569161046
236.271	7.104000000000013	ITI	Rien	0	0	0.0
243.375	0.4	chloe	233_pouvez	0	0	0.0
243.775	1.4280000000000088	answer	Rien	-3	3	1.4280000000000088
245.203	7.403999999999996	ITI	Rien	0	0	0.0
252.607	0.6878231292517006	anne	182_lundi	0	0	0.0
253.2948231292517	0.30417687074830757	answer	Rien	-1	1	0.30417687074830757
253.59900000000002	8.080999999999989	ITI	Rien	0	0	0.0
261.68	0.6545351473922902	betty	214_jeudi	0	0	0.0
262.3345351473923	0.7884648526077179	answer	Rien	-2	2	0.7884648526077179
263.123	8.506000000000029	ITI	Rien	0	0	0.0
271.629	0.4672789115646258	betty	214_quatre	0	0	0.0
272.09627891156464	1.0367210884353337	answer	Rien	-2	3	1.0367210884353337
273.133	8.125	ITI	Rien	0	0	0.0
281.258	0.4461678004535147	anne	182_penser	0	0	0.0
281.7041678004535	0.528832199546494	answer	Rien	-1	1	0.528832199546494
282.233	7.701000000000022	ITI	Rien	0	0	0.0
289.934	0.7373015873015873	chloe	233_jeudi	0	0	0.0
290.6713015873016	1.183698412698405	answer	Rien	-3	3	1.183698412698405
291.855	6.1159999999999854	ITI	Rien	0	0	0.0
297.971	0.464625850340136	chloe	233_penser	0	0	0.0
298.43562585034016	2.3933741496598566	answer	Rien	-3	1	2.3933741496598566
300.829	8.204999999999984	ITI	Rien	0	0	0.0
309.034	0.6176643990929706	anne	182_quatre	0	0	0.0
309.65166439909297	1.8573356009070139	answer	Rien	-1	2	1.8573356009070139
311.50899999999996	6.518000000000029	ITI	Rien	0	0	0.0
318.027	0.317687074829932	betty	214_hallo	0	0	0.0
318.3446870748299	1.9783129251700924	answer	Rien	-2	2	1.9783129251700924
320.323	7.2549999999999955	ITI	Rien	0	0	0.0
327.578	0.7879138321995465	chloe	233_neutre	0	0	0.0
328.3659138321995	2.255086167800454	answer	Rien	-3	3	2.255086167800454
330.621	6.507000000000005	ITI	Rien	0	0	0.0
337.128	0.4126303854875283	anne	182_toussez	0	0	0.0
337.54063038548753	2.4703696145125043	answer	Rien	-1	1	2.4703696145125043
340.011	4.597999999999956	ITI	Rien	0	0	0.0
