onset	duration	trial_type	file	expected_answer	answer	reaction_time
0.0	2.07	ITI	Rien	0	0	0.0
2.07	0.6146031746031746	betty	214_francais	0	0	0.0
2.6846031746031747	1.0963968253968255	answer	Rien	-2	2	1.0963968253968255
3.781	7.441	ITI	Rien	0	0	0.0
11.222	0.33918367346938777	betty	214_penser	0	0	0.0
11.561183673469387	1.6978163265306137	answer	Rien	-2	3	1.6978163265306137
13.259	7.274999999999999	ITI	Rien	0	0	0.0
20.534	0.6468934240362811	anne	182_voyelle	0	0	0.0
21.18089342403628	2.3121065759637176	answer	Rien	-1	1	2.3121065759637176
23.493	6.273	ITI	Rien	0	0	0.0
29.766	0.7329705215419501	chloe	233_quatre	0	0	0.0
30.49897052154195	0.9100294784580498	answer	Rien	-3	2	0.9100294784580498
31.409	7.987000000000002	ITI	Rien	0	0	0.0
39.396	0.4214739229024944	betty	214_toussez	0	0	0.0
39.817473922902494	1.3635260770975037	answer	Rien	-2	3	1.3635260770975037
41.181	8.004000000000005	ITI	Rien	0	0	0.0
49.185	0.7930385487528344	chloe	233_lundi	0	0	0.0
49.978038548752835	1.7229614512471656	answer	Rien	-3	2	1.7229614512471656
51.701	6.6370000000000005	ITI	Rien	0	0	0.0
58.338	0.6907256235827665	anne	182_neutre	0	0	0.0
59.028725623582766	2.2282743764172324	answer	Rien	-1	1	2.2282743764172324
61.257	6.551000000000009	ITI	Rien	0	0	0.0
67.808	0.4803174603174603	anne	182_pouvez	0	0	0.0
68.28831746031747	1.6406825396825298	answer	Rien	-1	2	1.6406825396825298
69.929	7.509	ITI	Rien	0	0	0.0
77.438	0.5071655328798186	betty	214_neutre	0	0	0.0
77.94516553287983	1.1878344671201688	answer	Rien	-2	2	1.1878344671201688
79.133	7.298000000000002	ITI	Rien	0	0	0.0
86.431	0.6693197278911565	anne	182_francais	0	0	0.0
87.10031972789115	1.3926802721088478	answer	Rien	-1	1	1.3926802721088478
88.493	7.170000000000002	ITI	Rien	0	0	0.0
95.663	0.5902040816326529	chloe	233_toussez	0	0	0.0
96.25320408163265	0.3077959183673613	answer	Rien	-3	3	0.3077959183673613
96.561	9.766999999999996	ITI	Rien	0	0	0.0
106.328	0.3878458049886621	betty	214_pouvez	0	0	0.0
106.71584580498866	0.6951541950113409	answer	Rien	-2	2	0.6951541950113409
107.411	8.069000000000003	ITI	Rien	0	0	0.0
115.48	0.4651927437641724	anne	182_hallo	0	0	0.0
115.94519274376418	1.4018072562358128	answer	Rien	-1	3	1.4018072562358128
117.347	7.1270000000000095	ITI	Rien	0	0	0.0
124.474	0.42	betty	214_partie	0	0	0.0
124.894	0.6769999999999925	answer	Rien	-2	2	0.6769999999999925
125.571	7.576999999999998	ITI	Rien	0	0	0.0
133.148	0.8311337868480726	chloe	233_francais	0	0	0.0
133.97913378684808	0.9018662131519193	answer	Rien	-3	3	0.9018662131519193
134.881	8.137	ITI	Rien	0	0	0.0
143.018	0.7627664399092969	anne	182_mardi	0	0	0.0
143.78076643990929	1.1882335600907084	answer	Rien	-1	2	1.1882335600907084
144.969	10.064999999999998	ITI	Rien	0	0	0.0
155.034	0.7115419501133787	chloe	233_voyelle	0	0	0.0
155.74554195011336	0.6434580498866467	answer	Rien	-3	3	0.6434580498866467
156.389	8.832999999999998	ITI	Rien	0	0	0.0
165.222	0.483061224489796	anne	182_partie	0	0	0.0
165.7050612244898	0.9879387755102016	answer	Rien	-1	3	0.9879387755102016
166.693	8.795999999999992	ITI	Rien	0	0	0.0
175.489	0.4357142857142857	chloe	233_hallo	0	0	0.0
175.9247142857143	1.0422857142857254	answer	Rien	-3	3	1.0422857142857254
176.967	8.230999999999995	ITI	Rien	0	0	0.0
185.198	0.6852380952380952	betty	214_mardi	0	0	0.0
185.8832380952381	1.1137619047619012	answer	Rien	-2	2	1.1137619047619012
186.997	8.785999999999973	ITI	Rien	0	0	0.0
195.783	0.5778684807256236	chloe	233_partie	0	0	0.0
196.3608684807256	1.5381315192744012	answer	Rien	-3	3	1.5381315192744012
197.899	6.956999999999994	ITI	Rien	0	0	0.0
204.856	0.4849206349206349	betty	214_voyelle	0	0	0.0
205.34092063492062	0.5580793650793794	answer	Rien	-2	2	0.5580793650793794
205.899	8.905000000000001	ITI	Rien	0	0	0.0
214.804	0.7290702947845805	anne	182_jeudi	0	0	0.0
215.53307029478458	0.5639297052154291	answer	Rien	-1	2	0.5639297052154291
216.097	8.972999999999985	ITI	Rien	0	0	0.0
225.07	0.5675963718820861	betty	214_lundi	0	0	0.0
225.63759637188207	1.4594036281179399	answer	Rien	-2	3	1.4594036281179399
227.097	6.807999999999993	ITI	Rien	0	0	0.0
233.905	0.8059410430839002	chloe	233_mardi	0	0	0.0
234.7109410430839	0.6440589569160977	answer	Rien	-3	3	0.6440589569160977
235.355	8.02000000000001	ITI	Rien	0	0	0.0
243.375	0.4	chloe	233_pouvez	0	0	0.0
243.775	0.6779999999999973	answer	Rien	-3	2	0.6779999999999973
244.453	8.155000000000001	ITI	Rien	0	0	0.0
252.608	0.6878231292517006	anne	182_lundi	0	0	0.0
253.29582312925172	0.35117687074827586	answer	Rien	-1	1	0.35117687074827586
253.647	8.033000000000015	ITI	Rien	0	0	0.0
261.68	0.6545351473922902	betty	214_jeudi	0	0	0.0
262.3345351473923	0.510464852607754	answer	Rien	-2	2	0.510464852607754
262.845	8.783999999999992	ITI	Rien	0	0	0.0
271.629	0.4672789115646258	betty	214_quatre	0	0	0.0
272.09627891156464	1.5947210884353353	answer	Rien	-2	2	1.5947210884353353
273.691	7.5680000000000405	ITI	Rien	0	0	0.0
281.259	0.4461678004535147	anne	182_penser	0	0	0.0
281.7051678004535	3.549832199546472	answer	Rien	-1	1	3.549832199546472
285.255	4.6790000000000305	ITI	Rien	0	0	0.0
289.934	0.7373015873015873	chloe	233_jeudi	0	0	0.0
290.6713015873016	0.28169841269834706	answer	Rien	-3	3	0.28169841269834706
290.953	7.0190000000000055	ITI	Rien	0	0	0.0
297.972	0.464625850340136	chloe	233_penser	0	0	0.0
298.43662585034014	1.7963741496598686	answer	Rien	-3	2	1.7963741496598686
300.233	8.800999999999988	ITI	Rien	0	0	0.0
309.034	0.6176643990929706	anne	182_quatre	0	0	0.0
309.65166439909297	2.609335600907059	answer	Rien	-1	2	2.609335600907059
312.261	5.766999999999996	ITI	Rien	0	0	0.0
318.028	0.317687074829932	betty	214_hallo	0	0	0.0
318.3456870748299	0.8013129251700661	answer	Rien	-2	2	0.8013129251700661
319.147	8.430999999999983	ITI	Rien	0	0	0.0
327.578	0.7879138321995465	chloe	233_neutre	0	0	0.0
328.3659138321995	1.7170861678005167	answer	Rien	-3	2	1.7170861678005167
330.083	7.045999999999992	ITI	Rien	0	0	0.0
337.129	0.4126303854875283	anne	182_toussez	0	0	0.0
337.54163038548757	0.6913696145124391	answer	Rien	-1	3	0.6913696145124391
338.233	6.375999999999976	ITI	Rien	0	0	0.0
