onset	duration	trial_type	file	expected_answer	answer	reaction_time
0.0	2.07	ITI	Rien	0	0	0.0
2.07	0.5071655328798186	betty	214_neutre	0	0	0.0
2.5771655328798184	0.5348344671201817	answer	Rien	-2	1	0.5348344671201817
3.112	8.508	ITI	Rien	0	0	0.0
11.62	0.317687074829932	betty	214_hallo	0	0	0.0
11.937687074829931	1.0803129251700696	answer	Rien	-2	3	1.0803129251700696
13.018	7.196999999999999	ITI	Rien	0	0	0.0
20.215	0.483061224489796	anne	182_partie	0	0	0.0
20.698061224489795	1.6479387755102053	answer	Rien	-1	3	1.6479387755102053
22.346	6.861999999999998	ITI	Rien	0	0	0.0
29.208	0.7879138321995465	chloe	233_neutre	0	0	0.0
29.995913832199545	0.9440861678004566	answer	Rien	-3	2	0.9440861678004566
30.94	7.818999999999999	ITI	Rien	0	0	0.0
38.759	0.7290702947845805	anne	182_jeudi	0	0	0.0
39.48807029478458	0.7859297052154233	answer	Rien	-1	2	0.7859297052154233
40.274	7.716000000000001	ITI	Rien	0	0	0.0
47.99	0.8311337868480726	chloe	233_francais	0	0	0.0
48.82113378684807	1.2688662131519308	answer	Rien	-3	2	1.2688662131519308
50.09	7.372	ITI	Rien	0	0	0.0
57.462	0.464625850340136	chloe	233_penser	0	0	0.0
57.92662585034014	0.9353741496598644	answer	Rien	-3	2	0.9353741496598644
58.862	7.672000000000004	ITI	Rien	0	0	0.0
66.534	0.4214739229024944	betty	214_toussez	0	0	0.0
66.9554739229025	1.4185260770974963	answer	Rien	-2	2	1.4185260770974963
68.374	8.02900000000001	ITI	Rien	0	0	0.0
76.403	0.7627664399092969	anne	182_mardi	0	0	0.0
77.1657664399093	2.2742335600906927	answer	Rien	-1	3	2.2742335600906927
79.44	6.513000000000005	ITI	Rien	0	0	0.0
85.953	0.4	chloe	233_pouvez	0	0	0.0
86.35300000000001	0.9469999999999885	answer	Rien	-3	3	0.9469999999999885
87.3	8.204000000000008	ITI	Rien	0	0	0.0
95.504	0.6878231292517006	anne	182_lundi	0	0	0.0
96.1918231292517	0.8481768707483042	answer	Rien	-1	1	0.8481768707483042
97.04	9.048999999999992	ITI	Rien	0	0	0.0
106.089	0.42	betty	214_partie	0	0	0.0
106.509	1.2129999999999939	answer	Rien	-2	2	1.2129999999999939
107.722	8.156000000000006	ITI	Rien	0	0	0.0
115.878	0.4126303854875283	anne	182_toussez	0	0	0.0
116.29063038548753	1.953369614512468	answer	Rien	-1	3	1.953369614512468
118.244	6.787000000000006	ITI	Rien	0	0	0.0
125.031	0.3878458049886621	betty	214_pouvez	0	0	0.0
125.41884580498866	0.9371541950113311	answer	Rien	-2	2	0.9371541950113311
126.356	9.65700000000001	ITI	Rien	0	0	0.0
136.013	0.7115419501133787	chloe	233_voyelle	0	0	0.0
136.72454195011338	1.5114580498866133	answer	Rien	-3	3	1.5114580498866133
138.236	7.328000000000003	ITI	Rien	0	0	0.0
145.564	0.4651927437641724	anne	182_hallo	0	0	0.0
146.02919274376416	1.6348072562358311	answer	Rien	-1	3	1.6348072562358311
147.664	7.2900000000000205	ITI	Rien	0	0	0.0
154.954	0.6146031746031746	betty	214_francais	0	0	0.0
155.56860317460317	0.5893968253968183	answer	Rien	-2	2	0.5893968253968183
156.158	10.655000000000001	ITI	Rien	0	0	0.0
166.813	0.5902040816326529	chloe	233_toussez	0	0	0.0
167.40320408163265	0.3667959183673588	answer	Rien	-3	3	0.3667959183673588
167.77	8.036000000000001	ITI	Rien	0	0	0.0
175.806	0.4849206349206349	betty	214_voyelle	0	0	0.0
176.29092063492064	0.5810793650793755	answer	Rien	-2	2	0.5810793650793755
176.872	8.404999999999973	ITI	Rien	0	0	0.0
185.277	0.4357142857142857	chloe	233_hallo	0	0	0.0
185.71271428571427	1.0092857142857383	answer	Rien	-3	3	1.0092857142857383
186.722	7.22999999999999	ITI	Rien	0	0	0.0
193.952	0.4803174603174603	anne	182_pouvez	0	0	0.0
194.43231746031745	0.839682539682542	answer	Rien	-1	1	0.839682539682542
195.272	8.469000000000023	ITI	Rien	0	0	0.0
203.741	0.4672789115646258	betty	214_quatre	0	0	0.0
204.20827891156463	0.6417210884353608	answer	Rien	-2	2	0.6417210884353608
204.85	9.158000000000015	ITI	Rien	0	0	0.0
214.008	0.8059410430839002	chloe	233_mardi	0	0	0.0
214.8139410430839	0.7540589569161114	answer	Rien	-3	3	0.7540589569161114
215.568	7.5120000000000005	ITI	Rien	0	0	0.0
223.08	0.6693197278911565	anne	182_francais	0	0	0.0
223.74931972789116	0.664680272108825	answer	Rien	-1	2	0.664680272108825
224.414	7.660000000000025	ITI	Rien	0	0	0.0
232.074	0.6176643990929706	anne	182_quatre	0	0	0.0
232.69166439909299	0.3703356009070262	answer	Rien	-1	1	0.3703356009070262
233.062	8.879999999999995	ITI	Rien	0	0	0.0
241.942	0.7373015873015873	chloe	233_jeudi	0	0	0.0
242.6793015873016	1.0426984126983996	answer	Rien	-3	2	1.0426984126983996
243.722	6.258999999999986	ITI	Rien	0	0	0.0
249.981	0.5778684807256236	chloe	233_partie	0	0	0.0
250.5588684807256	1.2711315192744053	answer	Rien	-3	3	1.2711315192744053
251.83	7.302999999999969	ITI	Rien	0	0	0.0
259.133	0.5675963718820861	betty	214_lundi	0	0	0.0
259.70059637188206	0.6934036281179488	answer	Rien	-2	2	0.6934036281179488
260.394	9.403999999999996	ITI	Rien	0	0	0.0
269.798	0.6545351473922902	betty	214_jeudi	0	0	0.0
270.45253514739227	0.45146485260772806	answer	Rien	-2	2	0.45146485260772806
270.904	8.841999999999985	ITI	Rien	0	0	0.0
279.746	0.7329705215419501	chloe	233_quatre	0	0	0.0
280.47897052154195	0.9870294784580551	answer	Rien	-3	3	0.9870294784580551
281.466	7.5919999999999845	ITI	Rien	0	0	0.0
289.058	0.33918367346938777	betty	214_penser	0	0	0.0
289.3971836734694	0.554816326530613	answer	Rien	-2	2	0.554816326530613
289.952	7.939000000000021	ITI	Rien	0	0	0.0
297.891	0.6468934240362811	anne	182_voyelle	0	0	0.0
298.5378934240363	0.3941065759636899	answer	Rien	-1	3	0.3941065759636899
298.932	9.146999999999991	ITI	Rien	0	0	0.0
308.079	0.4461678004535147	anne	182_penser	0	0	0.0
308.5251678004535	0.7308321995464553	answer	Rien	-1	1	0.7308321995464553
309.256	7.578000000000031	ITI	Rien	0	0	0.0
316.834	0.7930385487528344	chloe	233_lundi	0	0	0.0
317.62703854875286	1.2549614512471408	answer	Rien	-3	3	1.2549614512471408
318.882	8.218000000000018	ITI	Rien	0	0	0.0
327.1	0.6852380952380952	betty	214_mardi	0	0	0.0
327.7852380952381	0.5227619047618646	answer	Rien	-2	2	0.5227619047618646
328.308	8.581000000000017	ITI	Rien	0	0	0.0
336.889	0.6907256235827665	anne	182_neutre	0	0	0.0
337.57972562358276	1.0342743764172155	answer	Rien	-1	2	1.0342743764172155
338.614	5.9950000000000045	ITI	Rien	0	0	0.0
