onset	duration	trial_type	file	expected_answer	answer	reaction_time
0.0	2.069	ITI	Rien	0	0	0.0
2.069	0.6146031746031746	betty	214_francais	0	0	0.0
2.6836031746031743	1.0453968253968253	answer	Rien	-2	1	1.0453968253968253
3.7289999999999996	7.493	ITI	Rien	0	0	0.0
11.222	0.33918367346938777	betty	214_penser	0	0	0.0
11.561183673469387	1.4078163265306118	answer	Rien	-2	3	1.4078163265306118
12.968999999999998	7.564000000000004	ITI	Rien	0	0	0.0
20.533	0.6468934240362811	anne	182_voyelle	0	0	0.0
21.179893424036283	0.3551065759637176	answer	Rien	-1	1	0.3551065759637176
21.535	8.230999999999998	ITI	Rien	0	0	0.0
29.766	0.7329705215419501	chloe	233_quatre	0	0	0.0
30.49897052154195	1.2540294784580528	answer	Rien	-3	3	1.2540294784580528
31.753	7.642000000000003	ITI	Rien	0	0	0.0
39.395	0.4214739229024944	betty	214_toussez	0	0	0.0
39.816473922902496	0.5665260770975	answer	Rien	-2	2	0.5665260770975
40.382999999999996	8.802000000000007	ITI	Rien	0	0	0.0
49.185	0.7930385487528344	chloe	233_lundi	0	0	0.0
49.978038548752835	0.7269614512471656	answer	Rien	-3	2	0.7269614512471656
50.705	7.632000000000005	ITI	Rien	0	0	0.0
58.337	0.6907256235827665	anne	182_neutre	0	0	0.0
59.02772562358277	0.41927437641722753	answer	Rien	-1	1	0.41927437641722753
59.446999999999996	8.361000000000011	ITI	Rien	0	0	0.0
67.808	0.4803174603174603	anne	182_pouvez	0	0	0.0
68.28831746031747	2.0406825396825274	answer	Rien	-1	2	2.0406825396825274
70.329	7.109000000000009	ITI	Rien	0	0	0.0
77.438	0.5071655328798186	betty	214_neutre	0	0	0.0
77.94516553287983	1.4078344671201837	answer	Rien	-2	2	1.4078344671201837
79.35300000000001	7.077999999999989	ITI	Rien	0	0	0.0
86.431	0.6693197278911565	anne	182_francais	0	0	0.0
87.10031972789115	0.5466802721088517	answer	Rien	-1	1	0.5466802721088517
87.647	8.016999999999996	ITI	Rien	0	0	0.0
95.664	0.5902040816326529	chloe	233_toussez	0	0	0.0
96.25420408163265	0.5087959183673427	answer	Rien	-3	3	0.5087959183673427
96.76299999999999	9.565000000000012	ITI	Rien	0	0	0.0
106.328	0.3878458049886621	betty	214_pouvez	0	0	0.0
106.71584580498866	0.8111541950113417	answer	Rien	-2	2	0.8111541950113417
107.527	7.953000000000003	ITI	Rien	0	0	0.0
115.48	0.4651927437641724	anne	182_hallo	0	0	0.0
115.94519274376418	0.7578072562358203	answer	Rien	-1	1	0.7578072562358203
116.703	7.769999999999996	ITI	Rien	0	0	0.0
124.473	0.42	betty	214_partie	0	0	0.0
124.893	0.8779999999999943	answer	Rien	-2	3	0.8779999999999943
125.771	7.378	ITI	Rien	0	0	0.0
133.149	0.8311337868480726	chloe	233_francais	0	0	0.0
133.98013378684809	0.8088662131519274	answer	Rien	-3	1	0.8088662131519274
134.78900000000002	8.22799999999998	ITI	Rien	0	0	0.0
143.017	0.7627664399092969	anne	182_mardi	0	0	0.0
143.77976643990928	2.099233560090695	answer	Rien	-1	1	2.099233560090695
145.87899999999996	9.156000000000034	ITI	Rien	0	0	0.0
155.035	0.7115419501133787	chloe	233_voyelle	0	0	0.0
155.74654195011337	0.7284580498866372	answer	Rien	-3	3	0.7284580498866372
156.475	8.747000000000014	ITI	Rien	0	0	0.0
165.222	0.483061224489796	anne	182_partie	0	0	0.0
165.7050612244898	1.429938775510192	answer	Rien	-1	1	1.429938775510192
167.135	8.353000000000009	ITI	Rien	0	0	0.0
175.488	0.4357142857142857	chloe	233_hallo	0	0	0.0
175.92371428571428	0.8732857142857229	answer	Rien	-3	3	0.8732857142857229
176.797	8.40100000000001	ITI	Rien	0	0	0.0
185.198	0.6852380952380952	betty	214_mardi	0	0	0.0
185.8832380952381	0.9417619047618846	answer	Rien	-2	2	0.9417619047618846
186.825	8.957999999999998	ITI	Rien	0	0	0.0
195.783	0.5778684807256236	chloe	233_partie	0	0	0.0
196.3608684807256	0.2841315192744005	answer	Rien	-3	1	0.2841315192744005
196.645	8.210999999999984	ITI	Rien	0	0	0.0
204.856	0.4849206349206349	betty	214_voyelle	0	0	0.0
205.34092063492062	0.5600793650793814	answer	Rien	-2	3	0.5600793650793814
205.901	8.902999999999992	ITI	Rien	0	0	0.0
214.804	0.7290702947845805	anne	182_jeudi	0	0	0.0
215.53307029478458	0.557929705215407	answer	Rien	-1	1	0.557929705215407
216.09099999999998	8.980000000000018	ITI	Rien	0	0	0.0
225.071	0.5675963718820861	betty	214_lundi	0	0	0.0
225.63859637188207	0.9164036281179095	answer	Rien	-2	3	0.9164036281179095
226.55499999999998	7.349000000000018	ITI	Rien	0	0	0.0
233.904	0.8059410430839002	chloe	233_mardi	0	0	0.0
234.7099410430839	1.0410589569161093	answer	Rien	-3	2	1.0410589569161093
235.751	7.623999999999995	ITI	Rien	0	0	0.0
243.375	0.4	chloe	233_pouvez	0	0	0.0
243.775	0.0	answer	Rien	-3	0	0.0
243.775	8.832999999999998	ITI	Rien	0	0	0.0
252.608	0.6878231292517006	anne	182_lundi	0	0	0.0
253.29582312925172	0.9691768707483075	answer	Rien	-1	1	0.9691768707483075
254.26500000000001	7.414999999999992	ITI	Rien	0	0	0.0
261.68	0.6545351473922902	betty	214_jeudi	0	0	0.0
262.3345351473923	2.2844648526076945	answer	Rien	-2	2	2.2844648526076945
264.61899999999997	7.010000000000048	ITI	Rien	0	0	0.0
271.629	0.4672789115646258	betty	214_quatre	0	0	0.0
272.09627891156464	0.5467210884353337	answer	Rien	-2	3	0.5467210884353337
272.643	8.615000000000009	ITI	Rien	0	0	0.0
281.258	0.4461678004535147	anne	182_penser	0	0	0.0
281.7041678004535	0.7548321995464939	answer	Rien	-1	1	0.7548321995464939
282.459	7.475000000000023	ITI	Rien	0	0	0.0
289.934	0.7373015873015873	chloe	233_jeudi	0	0	0.0
290.6713015873016	0.6656984126984049	answer	Rien	-3	3	0.6656984126984049
291.33700000000005	6.634999999999934	ITI	Rien	0	0	0.0
297.972	0.464625850340136	chloe	233_penser	0	0	0.0
298.43662585034014	0.0	answer	Rien	-3	0	0.0
298.43662585034014	10.597374149659856	ITI	Rien	0	0	0.0
309.034	0.6176643990929706	anne	182_quatre	0	0	0.0
309.65166439909297	1.0793356009070139	answer	Rien	-1	1	1.0793356009070139
310.731	7.295999999999992	ITI	Rien	0	0	0.0
318.027	0.317687074829932	betty	214_hallo	0	0	0.0
318.3446870748299	0.9383129251700926	answer	Rien	-2	3	0.9383129251700926
319.28299999999996	8.295000000000016	ITI	Rien	0	0	0.0
327.578	0.7879138321995465	chloe	233_neutre	0	0	0.0
328.3659138321995	1.2570861678004535	answer	Rien	-3	2	1.2570861678004535
329.623	7.5049999999999955	ITI	Rien	0	0	0.0
337.128	0.4126303854875283	anne	182_toussez	0	0	0.0
337.54063038548753	0.848369614512504	answer	Rien	-1	2	0.848369614512504
338.389	6.21999999999997	ITI	Rien	0	0	0.0
