onset	duration	trial_type	file	expected_answer	answer	reaction_time
0.0	2.069	ITI	Rien	0	0	0.0
2.069	0.6146031746031746	betty	214_francais	0	0	0.0
2.6836031746031743	0.9463968253968256	answer	Rien	-2	2	0.9463968253968256
3.63	7.592	ITI	Rien	0	0	0.0
11.222	0.33918367346938777	betty	214_penser	0	0	0.0
11.561183673469387	0.8228163265306125	answer	Rien	-2	2	0.8228163265306125
12.383999999999999	8.149000000000003	ITI	Rien	0	0	0.0
20.533	0.6468934240362811	anne	182_voyelle	0	0	0.0
21.179893424036283	0.5621065759637164	answer	Rien	-1	1	0.5621065759637164
21.742	8.023	ITI	Rien	0	0	0.0
29.765	0.7329705215419501	chloe	233_quatre	0	0	0.0
30.49797052154195	0.6480294784580493	answer	Rien	-3	3	0.6480294784580493
31.146	8.249000000000002	ITI	Rien	0	0	0.0
39.395	0.4214739229024944	betty	214_toussez	0	0	0.0
39.816473922902496	0.6715260770975023	answer	Rien	-2	2	0.6715260770975023
40.488	8.695999999999998	ITI	Rien	0	0	0.0
49.184	0.7930385487528344	chloe	233_lundi	0	0	0.0
49.97703854875283	1.2029614512471656	answer	Rien	-3	3	1.2029614512471656
51.17999999999999	7.157000000000011	ITI	Rien	0	0	0.0
58.337	0.6907256235827665	anne	182_neutre	0	0	0.0
59.02772562358277	1.4062743764172274	answer	Rien	-1	1	1.4062743764172274
60.434	7.373000000000005	ITI	Rien	0	0	0.0
67.807	0.4803174603174603	anne	182_pouvez	0	0	0.0
68.28731746031747	2.5866825396825415	answer	Rien	-1	3	2.5866825396825415
70.87400000000001	6.563999999999993	ITI	Rien	0	0	0.0
77.438	0.5071655328798186	betty	214_neutre	0	0	0.0
77.94516553287983	0.0	answer	Rien	-2	0	0.0
77.94516553287983	8.48483446712018	ITI	Rien	0	0	0.0
86.43	0.6693197278911565	anne	182_francais	0	0	0.0
87.09931972789116	0.6466802721088423	answer	Rien	-1	1	0.6466802721088423
87.746	7.917000000000002	ITI	Rien	0	0	0.0
95.663	0.5902040816326529	chloe	233_toussez	0	0	0.0
96.25320408163265	2.682795918367357	answer	Rien	-3	3	2.682795918367357
98.936	7.390999999999991	ITI	Rien	0	0	0.0
106.327	0.3878458049886621	betty	214_pouvez	0	0	0.0
106.71484580498866	1.1891541950113418	answer	Rien	-2	2	1.1891541950113418
107.904	7.576000000000008	ITI	Rien	0	0	0.0
115.48	0.4651927437641724	anne	182_hallo	0	0	0.0
115.94519274376418	0.7288072562358298	answer	Rien	-1	1	0.7288072562358298
116.674	7.798999999999992	ITI	Rien	0	0	0.0
124.473	0.42	betty	214_partie	0	0	0.0
124.893	0.9730000000000039	answer	Rien	-2	2	0.9730000000000039
125.866	7.2819999999999965	ITI	Rien	0	0	0.0
133.148	0.8311337868480726	chloe	233_francais	0	0	0.0
133.97913378684808	1.8328662131519273	answer	Rien	-3	3	1.8328662131519273
135.812	7.203999999999979	ITI	Rien	0	0	0.0
143.016	0.7627664399092969	anne	182_mardi	0	0	0.0
143.77876643990928	2.1132335600907237	answer	Rien	-1	1	2.1132335600907237
145.892	9.141999999999996	ITI	Rien	0	0	0.0
155.034	0.7115419501133787	chloe	233_voyelle	0	0	0.0
155.74554195011336	1.504458049886642	answer	Rien	-3	3	1.504458049886642
157.25	7.971000000000004	ITI	Rien	0	0	0.0
165.221	0.483061224489796	anne	182_partie	0	0	0.0
165.7040612244898	2.123938775510192	answer	Rien	-1	1	2.123938775510192
167.828	7.658999999999992	ITI	Rien	0	0	0.0
175.487	0.4357142857142857	chloe	233_hallo	0	0	0.0
175.92271428571428	0.8892857142857229	answer	Rien	-3	3	0.8892857142857229
176.812	8.384999999999991	ITI	Rien	0	0	0.0
185.197	0.6852380952380952	betty	214_mardi	0	0	0.0
185.8822380952381	0.5457619047618893	answer	Rien	-2	2	0.5457619047618893
186.428	9.354000000000013	ITI	Rien	0	0	0.0
195.782	0.5778684807256236	chloe	233_partie	0	0	0.0
196.35986848072562	1.464131519274372	answer	Rien	-3	3	1.464131519274372
197.82399999999998	7.031000000000006	ITI	Rien	0	0	0.0
204.855	0.4849206349206349	betty	214_voyelle	0	0	0.0
205.33992063492062	1.0200793650793814	answer	Rien	-2	2	1.0200793650793814
206.35999999999999	8.443000000000012	ITI	Rien	0	0	0.0
214.803	0.7290702947845805	anne	182_jeudi	0	0	0.0
215.53207029478457	0.3539297052154165	answer	Rien	-1	1	0.3539297052154165
215.886	9.183999999999997	ITI	Rien	0	0	0.0
225.07	0.5675963718820861	betty	214_lundi	0	0	0.0
225.63759637188207	1.7824036281179145	answer	Rien	-2	2	1.7824036281179145
227.42	6.484000000000009	ITI	Rien	0	0	0.0
233.904	0.8059410430839002	chloe	233_mardi	0	0	0.0
234.7099410430839	0.0	answer	Rien	-3	0	0.0
234.7099410430839	8.665058956916113	ITI	Rien	0	0	0.0
243.375	0.4	chloe	233_pouvez	0	0	0.0
243.775	2.955000000000004	answer	Rien	-3	3	2.955000000000004
246.73000000000002	5.876999999999981	ITI	Rien	0	0	0.0
252.607	0.6878231292517006	anne	182_lundi	0	0	0.0
253.2948231292517	0.34917687074830756	answer	Rien	-1	1	0.34917687074830756
253.644	8.036000000000001	ITI	Rien	0	0	0.0
261.68	0.6545351473922902	betty	214_jeudi	0	0	0.0
262.3345351473923	1.935464852607718	answer	Rien	-2	2	1.935464852607718
264.27	7.358000000000004	ITI	Rien	0	0	0.0
271.628	0.4672789115646258	betty	214_quatre	0	0	0.0
272.0952789115646	1.6027210884353904	answer	Rien	-2	2	1.6027210884353904
273.698	7.560000000000002	ITI	Rien	0	0	0.0
281.258	0.4461678004535147	anne	182_penser	0	0	0.0
281.7041678004535	0.4378321995465176	answer	Rien	-1	1	0.4378321995465176
282.142	7.790999999999997	ITI	Rien	0	0	0.0
289.933	0.7373015873015873	chloe	233_jeudi	0	0	0.0
290.6703015873016	1.8256984126984048	answer	Rien	-3	3	1.8256984126984048
292.496	5.475000000000023	ITI	Rien	0	0	0.0
297.971	0.464625850340136	chloe	233_penser	0	0	0.0
298.43562585034016	0.4183741496598804	answer	Rien	-3	1	0.4183741496598804
298.85400000000004	10.17999999999995	ITI	Rien	0	0	0.0
309.034	0.6176643990929706	anne	182_quatre	0	0	0.0
309.65166439909297	0.0	answer	Rien	-1	0	0.0
309.65166439909297	8.374335600907045	ITI	Rien	0	0	0.0
318.026	0.317687074829932	betty	214_hallo	0	0	0.0
318.3436870748299	1.2343129251700355	answer	Rien	-2	2	1.2343129251700355
319.578	7.999000000000024	ITI	Rien	0	0	0.0
327.577	0.7879138321995465	chloe	233_neutre	0	0	0.0
328.36491383219953	1.56708616780043	answer	Rien	-3	3	1.56708616780043
329.93199999999996	7.19500000000005	ITI	Rien	0	0	0.0
337.127	0.4126303854875283	anne	182_toussez	0	0	0.0
337.53963038548756	0.7563696145124803	answer	Rien	-1	1	0.7563696145124803
338.29600000000005	6.312999999999931	ITI	Rien	0	0	0.0
