onset	duration	trial_type	file	expected_answer	answer	reaction_time
0.0	2.07	ITI	Rien	0	0	0.0
2.07	0.5071655328798186	betty	214_neutre	0	0	0.0
2.5771655328798184	1.0888344671201813	answer	Rien	-2	2	1.0888344671201813
3.6659999999999995	7.954000000000001	ITI	Rien	0	0	0.0
11.62	0.317687074829932	betty	214_hallo	0	0	0.0
11.937687074829931	0.8683129251700694	answer	Rien	-2	1	0.8683129251700694
12.806000000000001	7.408999999999999	ITI	Rien	0	0	0.0
20.215	0.483061224489796	anne	182_partie	0	0	0.0
20.698061224489795	0.0	answer	Rien	-1	0	0.0
20.698061224489795	8.510938775510205	ITI	Rien	0	0	0.0
29.209	0.7879138321995465	chloe	233_neutre	0	0	0.0
29.996913832199546	0.0	answer	Rien	-3	0	0.0
29.996913832199546	8.762086167800454	ITI	Rien	0	0	0.0
38.759	0.7290702947845805	anne	182_jeudi	0	0	0.0
39.48807029478458	1.5779297052154164	answer	Rien	-1	1	1.5779297052154164
41.065999999999995	6.925000000000004	ITI	Rien	0	0	0.0
47.991	0.8311337868480726	chloe	233_francais	0	0	0.0
48.82213378684807	0.0	answer	Rien	-3	0	0.0
48.82213378684807	8.639866213151933	ITI	Rien	0	0	0.0
57.462	0.464625850340136	chloe	233_penser	0	0	0.0
57.92662585034014	1.2493741496598638	answer	Rien	-3	2	1.2493741496598638
59.176	7.358999999999995	ITI	Rien	0	0	0.0
66.535	0.4214739229024944	betty	214_toussez	0	0	0.0
66.95647392290249	0.9235260770975094	answer	Rien	-2	1	0.9235260770975094
67.88	8.524000000000001	ITI	Rien	0	0	0.0
76.404	0.7627664399092969	anne	182_mardi	0	0	0.0
77.1667664399093	0.0	answer	Rien	-1	0	0.0
77.1667664399093	8.787233560090698	ITI	Rien	0	0	0.0
85.954	0.4	chloe	233_pouvez	0	0	0.0
86.354	1.194000000000004	answer	Rien	-3	1	1.194000000000004
87.548	7.956999999999994	ITI	Rien	0	0	0.0
95.505	0.6878231292517006	anne	182_lundi	0	0	0.0
96.19282312925169	2.1731768707483075	answer	Rien	-1	1	2.1731768707483075
98.366	7.722999999999999	ITI	Rien	0	0	0.0
106.089	0.42	betty	214_partie	0	0	0.0
106.509	0.6550000000000038	answer	Rien	-2	1	0.6550000000000038
107.164	8.713999999999999	ITI	Rien	0	0	0.0
115.878	0.4126303854875283	anne	182_toussez	0	0	0.0
116.29063038548753	0.46336961451246617	answer	Rien	-1	1	0.46336961451246617
116.754	8.275999999999996	ITI	Rien	0	0	0.0
125.03	0.3878458049886621	betty	214_pouvez	0	0	0.0
125.41784580498866	2.5621541950113325	answer	Rien	-2	2	2.5621541950113325
127.97999999999999	8.03400000000002	ITI	Rien	0	0	0.0
136.014	0.7115419501133787	chloe	233_voyelle	0	0	0.0
136.72554195011338	1.1664580498866135	answer	Rien	-3	3	1.1664580498866135
137.892	7.673000000000002	ITI	Rien	0	0	0.0
145.565	0.4651927437641724	anne	182_hallo	0	0	0.0
146.03019274376416	2.255807256235844	answer	Rien	-1	3	2.255807256235844
148.286	6.669000000000011	ITI	Rien	0	0	0.0
154.955	0.6146031746031746	betty	214_francais	0	0	0.0
155.56960317460317	0.0	answer	Rien	-2	0	0.0
155.56960317460317	11.24439682539682	ITI	Rien	0	0	0.0
166.814	0.5902040816326529	chloe	233_toussez	0	0	0.0
167.40420408163266	0.3477959183673475	answer	Rien	-3	3	0.3477959183673475
167.752	8.054999999999978	ITI	Rien	0	0	0.0
175.807	0.4849206349206349	betty	214_voyelle	0	0	0.0
176.29192063492061	0.0	answer	Rien	-2	0	0.0
176.29192063492061	8.986079365079377	ITI	Rien	0	0	0.0
185.278	0.4357142857142857	chloe	233_hallo	0	0	0.0
185.71371428571427	2.544285714285718	answer	Rien	-3	3	2.544285714285718
188.25799999999998	5.694000000000017	ITI	Rien	0	0	0.0
193.952	0.4803174603174603	anne	182_pouvez	0	0	0.0
194.43231746031745	2.3396825396825274	answer	Rien	-1	1	2.3396825396825274
196.77199999999996	6.970000000000027	ITI	Rien	0	0	0.0
203.742	0.4672789115646258	betty	214_quatre	0	0	0.0
204.2092789115646	1.6207210884353904	answer	Rien	-2	1	1.6207210884353904
205.83	8.178999999999974	ITI	Rien	0	0	0.0
214.009	0.8059410430839002	chloe	233_mardi	0	0	0.0
214.81494104308388	0.0	answer	Rien	-3	0	0.0
214.81494104308388	8.266058956916112	ITI	Rien	0	0	0.0
223.081	0.6693197278911565	anne	182_francais	0	0	0.0
223.75031972789114	2.6796802721088517	answer	Rien	-1	1	2.6796802721088517
226.42999999999998	5.64500000000001	ITI	Rien	0	0	0.0
232.075	0.6176643990929706	anne	182_quatre	0	0	0.0
232.69266439909296	0.0	answer	Rien	-1	0	0.0
232.69266439909296	9.25033560090705	ITI	Rien	0	0	0.0
241.943	0.7373015873015873	chloe	233_jeudi	0	0	0.0
242.68030158730159	2.167698412698405	answer	Rien	-3	3	2.167698412698405
244.84799999999998	5.1340000000000146	ITI	Rien	0	0	0.0
249.982	0.5778684807256236	chloe	233_partie	0	0	0.0
250.5598684807256	1.0701315192743721	answer	Rien	-3	3	1.0701315192743721
251.63	7.504000000000019	ITI	Rien	0	0	0.0
259.134	0.5675963718820861	betty	214_lundi	0	0	0.0
259.7015963718821	2.860403628117881	answer	Rien	-2	2	2.860403628117881
262.56199999999995	7.237000000000023	ITI	Rien	0	0	0.0
269.799	0.6545351473922902	betty	214_jeudi	0	0	0.0
270.45353514739224	0.0	answer	Rien	-2	0	0.0
270.45353514739224	9.292464852607736	ITI	Rien	0	0	0.0
279.746	0.7329705215419501	chloe	233_quatre	0	0	0.0
280.47897052154195	2.851029478458042	answer	Rien	-3	3	2.851029478458042
283.33	5.728000000000009	ITI	Rien	0	0	0.0
289.058	0.33918367346938777	betty	214_penser	0	0	0.0
289.3971836734694	1.4008163265306368	answer	Rien	-2	1	1.4008163265306368
290.798	7.093999999999994	ITI	Rien	0	0	0.0
297.892	0.6468934240362811	anne	182_voyelle	0	0	0.0
298.5388934240363	2.521106575963727	answer	Rien	-1	1	2.521106575963727
301.06	7.019999999999982	ITI	Rien	0	0	0.0
308.08	0.4461678004535147	anne	182_penser	0	0	0.0
308.5261678004535	0.9638321995465177	answer	Rien	-1	1	0.9638321995465177
309.49	7.343999999999994	ITI	Rien	0	0	0.0
316.834	0.7930385487528344	chloe	233_lundi	0	0	0.0
317.62703854875286	1.6429614512471655	answer	Rien	-3	1	1.6429614512471655
319.27000000000004	7.83099999999996	ITI	Rien	0	0	0.0
327.101	0.6852380952380952	betty	214_mardi	0	0	0.0
327.7862380952381	1.137761904761913	answer	Rien	-2	2	1.137761904761913
328.92400000000004	7.965999999999951	ITI	Rien	0	0	0.0
336.89	0.6907256235827665	anne	182_neutre	0	0	0.0
337.58072562358274	1.0732743764172419	answer	Rien	-1	1	1.0732743764172419
338.654	5.956000000000017	ITI	Rien	0	0	0.0
