onset	duration	trial_type	file	expected_answer	answer	reaction_time
0.0	2.07	ITI	Rien	0	0	0.0
2.07	0.5071655328798186	betty	214_neutre	0	0	0.0
2.5771655328798184	0.49083446712018136	answer	Rien	-2	1	0.49083446712018136
3.0679999999999996	8.552	ITI	Rien	0	0	0.0
11.62	0.317687074829932	betty	214_hallo	0	0	0.0
11.937687074829931	1.1703129251700695	answer	Rien	-2	2	1.1703129251700695
13.108	7.1080000000000005	ITI	Rien	0	0	0.0
20.216	0.483061224489796	anne	182_partie	0	0	0.0
20.699061224489796	0.34893877551020264	answer	Rien	-1	1	0.34893877551020264
21.048	8.161000000000001	ITI	Rien	0	0	0.0
29.209	0.7879138321995465	chloe	233_neutre	0	0	0.0
29.996913832199546	0.9190861678004535	answer	Rien	-3	3	0.9190861678004535
30.916	7.843999999999998	ITI	Rien	0	0	0.0
38.76	0.7290702947845805	anne	182_jeudi	0	0	0.0
39.489070294784575	0.0	answer	Rien	-1	0	0.0
39.489070294784575	8.501929705215424	ITI	Rien	0	0	0.0
47.991	0.8311337868480726	chloe	233_francais	0	0	0.0
48.82213378684807	1.3278662131519274	answer	Rien	-3	2	1.3278662131519274
50.15	7.312000000000005	ITI	Rien	0	0	0.0
57.462	0.464625850340136	chloe	233_penser	0	0	0.0
57.92662585034014	1.889374149659859	answer	Rien	-3	2	1.889374149659859
59.815999999999995	6.719000000000001	ITI	Rien	0	0	0.0
66.535	0.4214739229024944	betty	214_toussez	0	0	0.0
66.95647392290249	3.01752607709751	answer	Rien	-2	3	3.01752607709751
69.974	6.429999999999993	ITI	Rien	0	0	0.0
76.404	0.7627664399092969	anne	182_mardi	0	0	0.0
77.1667664399093	0.3612335600907048	answer	Rien	-1	1	0.3612335600907048
77.528	8.425999999999988	ITI	Rien	0	0	0.0
85.954	0.4	chloe	233_pouvez	0	0	0.0
86.354	2.586000000000004	answer	Rien	-3	3	2.586000000000004
88.94	6.564000000000007	ITI	Rien	0	0	0.0
95.504	0.6878231292517006	anne	182_lundi	0	0	0.0
96.1918231292517	1.1281768707482982	answer	Rien	-1	1	1.1281768707482982
97.32	8.769000000000005	ITI	Rien	0	0	0.0
106.089	0.42	betty	214_partie	0	0	0.0
106.509	0.0	answer	Rien	-2	0	0.0
106.509	9.369	ITI	Rien	0	0	0.0
115.878	0.4126303854875283	anne	182_toussez	0	0	0.0
116.29063038548753	1.209369614512466	answer	Rien	-1	1	1.209369614512466
117.5	7.531000000000006	ITI	Rien	0	0	0.0
125.031	0.3878458049886621	betty	214_pouvez	0	0	0.0
125.41884580498866	1.6391541950113322	answer	Rien	-2	2	1.6391541950113322
127.05799999999999	8.955000000000013	ITI	Rien	0	0	0.0
136.013	0.7115419501133787	chloe	233_voyelle	0	0	0.0
136.72454195011338	0.0	answer	Rien	-3	0	0.0
136.72454195011338	8.839458049886616	ITI	Rien	0	0	0.0
145.564	0.4651927437641724	anne	182_hallo	0	0	0.0
146.02919274376416	3.0248072562358437	answer	Rien	-1	1	3.0248072562358437
149.054	5.9010000000000105	ITI	Rien	0	0	0.0
154.955	0.6146031746031746	betty	214_francais	0	0	0.0
155.56960317460317	0.7663968253968259	answer	Rien	-2	3	0.7663968253968259
156.336	10.47799999999998	ITI	Rien	0	0	0.0
166.814	0.5902040816326529	chloe	233_toussez	0	0	0.0
167.40420408163266	1.611795918367343	answer	Rien	-3	2	1.611795918367343
169.016	6.7900000000000205	ITI	Rien	0	0	0.0
175.806	0.4849206349206349	betty	214_voyelle	0	0	0.0
176.29092063492064	2.329079365079353	answer	Rien	-2	3	2.329079365079353
178.62	6.657999999999987	ITI	Rien	0	0	0.0
185.278	0.4357142857142857	chloe	233_hallo	0	0	0.0
185.71371428571427	1.876285714285718	answer	Rien	-3	2	1.876285714285718
187.59	6.361999999999995	ITI	Rien	0	0	0.0
193.952	0.4803174603174603	anne	182_pouvez	0	0	0.0
194.43231746031745	1.8816825396825325	answer	Rien	-1	1	1.8816825396825325
196.314	7.427999999999997	ITI	Rien	0	0	0.0
203.742	0.4672789115646258	betty	214_quatre	0	0	0.0
204.2092789115646	1.0467210884353906	answer	Rien	-2	1	1.0467210884353906
205.256	8.752999999999986	ITI	Rien	0	0	0.0
214.009	0.8059410430839002	chloe	233_mardi	0	0	0.0
214.81494104308388	0.18305895691609975	answer	Rien	-3	1	0.18305895691609975
214.998	8.082999999999998	ITI	Rien	0	0	0.0
223.081	0.6693197278911565	anne	182_francais	0	0	0.0
223.75031972789114	0.5936802721088518	answer	Rien	-1	1	0.5936802721088518
224.344	7.7309999999999945	ITI	Rien	0	0	0.0
232.075	0.6176643990929706	anne	182_quatre	0	0	0.0
232.69266439909296	1.3673356009070377	answer	Rien	-1	1	1.3673356009070377
234.06	7.88300000000001	ITI	Rien	0	0	0.0
241.943	0.7373015873015873	chloe	233_jeudi	0	0	0.0
242.68030158730159	0.727698412698405	answer	Rien	-3	3	0.727698412698405
243.408	6.574000000000012	ITI	Rien	0	0	0.0
249.982	0.5778684807256236	chloe	233_partie	0	0	0.0
250.5598684807256	1.058131519274372	answer	Rien	-3	1	1.058131519274372
251.618	7.5160000000000196	ITI	Rien	0	0	0.0
259.134	0.5675963718820861	betty	214_lundi	0	0	0.0
259.7015963718821	0.0	answer	Rien	-2	0	0.0
259.7015963718821	10.096403628117912	ITI	Rien	0	0	0.0
269.798	0.6545351473922902	betty	214_jeudi	0	0	0.0
270.45253514739227	1.4254648526076943	answer	Rien	-2	3	1.4254648526076943
271.878	7.867999999999995	ITI	Rien	0	0	0.0
279.746	0.7329705215419501	chloe	233_quatre	0	0	0.0
280.47897052154195	1.343029478458042	answer	Rien	-3	3	1.343029478458042
281.822	7.23599999999999	ITI	Rien	0	0	0.0
289.058	0.33918367346938777	betty	214_penser	0	0	0.0
289.3971836734694	1.4128163265306368	answer	Rien	-2	2	1.4128163265306368
290.81	7.081999999999994	ITI	Rien	0	0	0.0
297.892	0.6468934240362811	anne	182_voyelle	0	0	0.0
298.5388934240363	0.941106575963727	answer	Rien	-1	1	0.941106575963727
299.48	8.59899999999999	ITI	Rien	0	0	0.0
308.079	0.4461678004535147	anne	182_penser	0	0	0.0
308.5251678004535	0.556832199546494	answer	Rien	-1	1	0.556832199546494
309.082	7.7520000000000095	ITI	Rien	0	0	0.0
316.834	0.7930385487528344	chloe	233_lundi	0	0	0.0
317.62703854875286	1.7429614512471419	answer	Rien	-3	1	1.7429614512471419
319.37	7.730000000000018	ITI	Rien	0	0	0.0
327.1	0.6852380952380952	betty	214_mardi	0	0	0.0
327.7852380952381	0.7247619047618893	answer	Rien	-2	2	0.7247619047618893
328.51	8.379999999999995	ITI	Rien	0	0	0.0
336.89	0.6907256235827665	anne	182_neutre	0	0	0.0
337.58072562358274	0.7192743764172417	answer	Rien	-1	1	0.7192743764172417
338.29999999999995	6.309000000000026	ITI	Rien	0	0	0.0
